study_id,experiment_name,year,month,day,participant,age_in_years,sex,role,participant_2,age_in_years_2,sex_2,role_2,species,dyad,phase,session,trial,food_in_non_social,position_5_rewards_in_social,position_1_reward_in_social,choice_focal_participant_right,choice_focal_participant_left,latency_open_door_right,latency_open_door_left,pull_latency_focal_participant_right,pull_latency_focal_participant_left,get_focal_participant_right,get_focal_participant_left
sanchez2017chimpanzees,2,2015,11,2,frodo,21,m,focal_participant_left,bangolo,6,m,focal_participant_right,chimpanzee,frodo_bangolo,1,1,1,1.0,free_exterior_side,roped_interior_side,non_social,social,1.6,2.16,no_pull,5.28,1.0,1.0
sanchez2017chimpanzees,2,2015,11,2,frodo,21,m,focal_participant_left,bangolo,6,m,focal_participant_right,chimpanzee,frodo_bangolo,1,1,2,1.0,free_exterior_side,roped_interior_side,social,non_social,0.2,0.96,5.84,no_pull,1.0,1.0
sanchez2017chimpanzees,2,2015,11,2,frodo,21,m,focal_participant_left,bangolo,6,m,focal_participant_right,chimpanzee,frodo_bangolo,1,1,3,1.0,roped_interior_side,free_exterior_side,social,social,0.4,0.88,4.44,no_pull,5.0,1.0
sanchez2017chimpanzees,2,2015,11,2,frodo,21,m,focal_participant_left,bangolo,6,m,focal_participant_right,chimpanzee,frodo_bangolo,1,1,4,1.0,free_exterior_side,roped_interior_side,social,non_social,0.32,1.8,1.88,no_pull,1.0,1.0
sanchez2017chimpanzees,2,2015,11,2,frodo,21,m,focal_participant_left,bangolo,6,m,focal_participant_right,chimpanzee,frodo_bangolo,1,1,5,1.0,free_exterior_side,roped_interior_side,social,non_social,0.92,1.28,2.92,no_pull,1.0,1.0
sanchez2017chimpanzees,2,2015,11,2,frodo,21,m,focal_participant_left,bangolo,6,m,focal_participant_right,chimpanzee,frodo_bangolo,1,1,6,1.0,roped_interior_side,free_exterior_side,social,social,0.36,0.96,1.24,no_pull,5.0,1.0
sanchez2017chimpanzees,2,2015,11,2,frodo,21,m,focal_participant_left,bangolo,6,m,focal_participant_right,chimpanzee,frodo_bangolo,1,1,7,1.0,roped_interior_side,free_exterior_side,social,social,1.4,1,no_pull,1.36,1.0,5.0
sanchez2017chimpanzees,2,2015,11,2,frodo,21,m,focal_participant_left,bangolo,6,m,focal_participant_right,chimpanzee,frodo_bangolo,1,1,8,1.0,roped_interior_side,free_exterior_side,social,social,0.24,0.88,3.12,1.88,5.0,1.0
sanchez2017chimpanzees,2,2015,11,5,bangolo,6,m,focal_participant_left,frodo,21,m,focal_participant_right,chimpanzee,bangolo_frodo,1,2,1,3.0,roped_interior_side,free_exterior_side,non_social,social,1.88,0.08,no_pull,12.16,3.0,5.0
sanchez2017chimpanzees,2,2015,11,5,bangolo,6,m,focal_participant_left,frodo,21,m,focal_participant_right,chimpanzee,bangolo_frodo,1,2,2,3.0,roped_interior_side,free_exterior_side,non_social,social,0.8,0.16,no_pull,1.36,3.0,5.0
sanchez2017chimpanzees,2,2015,11,5,bangolo,6,m,focal_participant_left,frodo,21,m,focal_participant_right,chimpanzee,bangolo_frodo,1,2,3,3.0,free_exterior_side,roped_interior_side,non_social,social,1.48,0.32,no_pull,1.64,3.0,5.0
sanchez2017chimpanzees,2,2015,11,5,bangolo,6,m,focal_participant_left,frodo,21,m,focal_participant_right,chimpanzee,bangolo_frodo,1,2,4,3.0,free_exterior_side,roped_interior_side,non_social,non_social,1.32,0.92,no_pull,no_pull,3.0,3.0
sanchez2017chimpanzees,2,2015,11,5,bangolo,6,m,focal_participant_left,frodo,21,m,focal_participant_right,chimpanzee,bangolo_frodo,1,2,5,3.0,roped_interior_side,free_exterior_side,social,social,0.72,0.08,no_pull,1.64,1.0,5.0
sanchez2017chimpanzees,2,2015,11,5,bangolo,6,m,focal_participant_left,frodo,21,m,focal_participant_right,chimpanzee,bangolo_frodo,1,2,6,3.0,roped_interior_side,free_exterior_side,social,social,0.64,0.44,1.36,1.88,1.0,5.0
sanchez2017chimpanzees,2,2015,11,5,bangolo,6,m,focal_participant_left,frodo,21,m,focal_participant_right,chimpanzee,bangolo_frodo,1,2,7,3.0,free_exterior_side,roped_interior_side,non_social,social,1.28,0.48,no_pull,3.16,3.0,0.0
sanchez2017chimpanzees,2,2015,11,5,bangolo,6,m,focal_participant_left,frodo,21,m,focal_participant_right,chimpanzee,bangolo_frodo,1,2,8,3.0,free_exterior_side,roped_interior_side,non_social,non_social,1.16,1,no_pull,no_pull,3.0,3.0
sanchez2017chimpanzees,2,2015,11,6,frodo,21,m,focal_participant_left,bangolo,6,m,focal_participant_right,chimpanzee,frodo_bangolo,1,3,1,3.0,free_exterior_side,roped_interior_side,social,non_social,0.36,1.76,no_pull,no_pull,0.0,3.0
sanchez2017chimpanzees,2,2015,11,6,frodo,21,m,focal_participant_left,bangolo,6,m,focal_participant_right,chimpanzee,frodo_bangolo,1,3,2,3.0,roped_interior_side,free_exterior_side,social,non_social,0.4,2.76,5.28,no_pull,5.0,3.0
sanchez2017chimpanzees,2,2015,11,6,frodo,21,m,focal_participant_left,bangolo,6,m,focal_participant_right,chimpanzee,frodo_bangolo,1,3,3,3.0,roped_interior_side,free_exterior_side,social,non_social,0.44,0.84,2.52,no_pull,5.0,3.0
sanchez2017chimpanzees,2,2015,11,6,frodo,21,m,focal_participant_left,bangolo,6,m,focal_participant_right,chimpanzee,frodo_bangolo,1,3,4,3.0,roped_interior_side,free_exterior_side,social,non_social,0.2,5.52,2.56,no_pull,5.0,3.0
sanchez2017chimpanzees,2,2015,11,6,frodo,21,m,focal_participant_left,bangolo,6,m,focal_participant_right,chimpanzee,frodo_bangolo,1,3,5,3.0,roped_interior_side,free_exterior_side,social,non_social,0.48,0.84,1.8,no_pull,5.0,3.0
sanchez2017chimpanzees,2,2015,11,6,frodo,21,m,focal_participant_left,bangolo,6,m,focal_participant_right,chimpanzee,frodo_bangolo,1,3,6,3.0,free_exterior_side,roped_interior_side,social,non_social,1.6,1.64,1.48,no_pull,1.0,3.0
sanchez2017chimpanzees,2,2015,11,6,frodo,21,m,focal_participant_left,bangolo,6,m,focal_participant_right,chimpanzee,frodo_bangolo,1,3,7,3.0,free_exterior_side,roped_interior_side,non_social,non_social,0.64,1.56,no_pull,no_pull,3.0,3.0
sanchez2017chimpanzees,2,2015,11,6,frodo,21,m,focal_participant_left,bangolo,6,m,focal_participant_right,chimpanzee,frodo_bangolo,1,3,8,3.0,free_exterior_side,roped_interior_side,non_social,non_social,1.28,1.24,no_pull,no_pull,3.0,3.0
sanchez2017chimpanzees,2,2015,11,7,bangolo,6,m,focal_participant_left,frodo,21,m,focal_participant_right,chimpanzee,bangolo_frodo,1,4,1,5.0,free_exterior_side,roped_interior_side,non_social,non_social,1.12,1.28,no_pull,no_pull,5.0,5.0
sanchez2017chimpanzees,2,2015,11,7,bangolo,6,m,focal_participant_left,frodo,21,m,focal_participant_right,chimpanzee,bangolo_frodo,1,4,2,5.0,free_exterior_side,roped_interior_side,non_social,non_social,1.28,1.64,no_pull,no_pull,5.0,5.0
sanchez2017chimpanzees,2,2015,11,7,bangolo,6,m,focal_participant_left,frodo,21,m,focal_participant_right,chimpanzee,bangolo_frodo,1,4,3,5.0,roped_interior_side,free_exterior_side,non_social,social,2.48,0.88,no_pull,4.6,5.0,5.0
sanchez2017chimpanzees,2,2015,11,7,bangolo,6,m,focal_participant_left,frodo,21,m,focal_participant_right,chimpanzee,bangolo_frodo,1,4,4,5.0,roped_interior_side,free_exterior_side,non_social,social,2.24,0.84,no_pull,1.8,5.0,5.0
sanchez2017chimpanzees,2,2015,11,7,bangolo,6,m,focal_participant_left,frodo,21,m,focal_participant_right,chimpanzee,bangolo_frodo,1,4,5,5.0,free_exterior_side,roped_interior_side,non_social,non_social,1,2.48,no_pull,no_pull,5.0,5.0
sanchez2017chimpanzees,2,2015,11,7,bangolo,6,m,focal_participant_left,frodo,21,m,focal_participant_right,chimpanzee,bangolo_frodo,1,4,6,5.0,roped_interior_side,free_exterior_side,non_social,social,4.4,0.76,no_pull,3.64,5.0,5.0
sanchez2017chimpanzees,2,2015,11,7,bangolo,6,m,focal_participant_left,frodo,21,m,focal_participant_right,chimpanzee,bangolo_frodo,1,4,7,5.0,free_exterior_side,roped_interior_side,non_social,non_social,1.52,2.48,no_pull,no_pull,5.0,5.0
sanchez2017chimpanzees,2,2015,11,7,bangolo,6,m,focal_participant_left,frodo,21,m,focal_participant_right,chimpanzee,bangolo_frodo,1,4,8,5.0,roped_interior_side,free_exterior_side,non_social,social,0.28,1.12,no_pull,3.6,5.0,5.0
sanchez2017chimpanzees,2,2015,11,11,frodo,21,m,focal_participant_left,bangolo,6,m,focal_participant_right,chimpanzee,frodo_bangolo,1,5,1,5.0,free_exterior_side,roped_interior_side,non_social,non_social,0.92,2.6,no_pull,no_pull,5.0,5.0
sanchez2017chimpanzees,2,2015,11,11,frodo,21,m,focal_participant_left,bangolo,6,m,focal_participant_right,chimpanzee,frodo_bangolo,1,5,2,5.0,roped_interior_side,free_exterior_side,social,non_social,0.48,1.68,5,no_pull,5.0,5.0
sanchez2017chimpanzees,2,2015,11,11,frodo,21,m,focal_participant_left,bangolo,6,m,focal_participant_right,chimpanzee,frodo_bangolo,1,5,3,5.0,free_exterior_side,roped_interior_side,non_social,non_social,1.52,2.12,no_pull,no_pull,5.0,5.0
sanchez2017chimpanzees,2,2015,11,11,frodo,21,m,focal_participant_left,bangolo,6,m,focal_participant_right,chimpanzee,frodo_bangolo,1,5,4,5.0,free_exterior_side,roped_interior_side,non_social,non_social,1.04,3,no_pull,no_pull,5.0,5.0
sanchez2017chimpanzees,2,2015,11,11,frodo,21,m,focal_participant_left,bangolo,6,m,focal_participant_right,chimpanzee,frodo_bangolo,1,5,5,5.0,free_exterior_side,roped_interior_side,non_social,non_social,1.8,0.76,no_pull,no_pull,5.0,5.0
sanchez2017chimpanzees,2,2015,11,11,frodo,21,m,focal_participant_left,bangolo,6,m,focal_participant_right,chimpanzee,frodo_bangolo,1,5,6,5.0,roped_interior_side,free_exterior_side,social,non_social,0.64,1.76,2,no_pull,5.0,5.0
sanchez2017chimpanzees,2,2015,11,11,frodo,21,m,focal_participant_left,bangolo,6,m,focal_participant_right,chimpanzee,frodo_bangolo,1,5,7,5.0,roped_interior_side,free_exterior_side,social,non_social,0.36,1.28,2.44,no_pull,5.0,5.0
sanchez2017chimpanzees,2,2015,11,11,frodo,21,m,focal_participant_left,bangolo,6,m,focal_participant_right,chimpanzee,frodo_bangolo,1,5,8,5.0,roped_interior_side,free_exterior_side,non_social,non_social,0.96,1.48,no_pull,no_pull,5.0,5.0
sanchez2017chimpanzees,2,2015,11,12,bangolo,6,m,focal_participant_left,frodo,21,m,focal_participant_right,chimpanzee,bangolo_frodo,1,6,1,0.0,free_exterior_side,roped_interior_side,social,social,5.76,0.12,no_pull,1.12,5.0,1.0
sanchez2017chimpanzees,2,2015,11,12,bangolo,6,m,focal_participant_left,frodo,21,m,focal_participant_right,chimpanzee,bangolo_frodo,1,6,2,0.0,roped_interior_side,free_exterior_side,social,social,5.88,0.24,no_pull,0.96,1.0,5.0
sanchez2017chimpanzees,2,2015,11,12,bangolo,6,m,focal_participant_left,frodo,21,m,focal_participant_right,chimpanzee,bangolo_frodo,1,6,3,0.0,roped_interior_side,free_exterior_side,social,social,4.68,0.16,no_pull,1.24,1.0,5.0
sanchez2017chimpanzees,2,2015,11,12,bangolo,6,m,focal_participant_left,frodo,21,m,focal_participant_right,chimpanzee,bangolo_frodo,1,6,4,0.0,roped_interior_side,free_exterior_side,social,social,3.88,0.16,no_pull,1.28,1.0,5.0
sanchez2017chimpanzees,2,2015,11,12,bangolo,6,m,focal_participant_left,frodo,21,m,focal_participant_right,chimpanzee,bangolo_frodo,1,6,5,0.0,roped_interior_side,free_exterior_side,social,social,7.36,1.24,no_pull,1.12,1.0,5.0
sanchez2017chimpanzees,2,2015,11,12,bangolo,6,m,focal_participant_left,frodo,21,m,focal_participant_right,chimpanzee,bangolo_frodo,1,6,6,0.0,free_exterior_side,roped_interior_side,non_social,social,7.24,0.48,no_pull,1.88,0.0,0.0
sanchez2017chimpanzees,2,2015,11,12,bangolo,6,m,focal_participant_left,frodo,21,m,focal_participant_right,chimpanzee,bangolo_frodo,1,6,7,0.0,free_exterior_side,roped_interior_side,no_choice,social,door_not_opened,0.4,no_pull,1.04,0.0,0.0
sanchez2017chimpanzees,2,2015,11,12,bangolo,6,m,focal_participant_left,frodo,21,m,focal_participant_right,chimpanzee,bangolo_frodo,1,6,8,0.0,free_exterior_side,roped_interior_side,social,social,6.24,0.68,no_pull,1.24,5.0,1.0
sanchez2017chimpanzees,2,2015,11,13,frodo,21,m,focal_participant_left,bangolo,6,m,focal_participant_right,chimpanzee,frodo_bangolo,1,7,1,1.0,roped_interior_side,free_exterior_side,social,social,0.36,2.52,4.96,2.6,5.0,1.0
sanchez2017chimpanzees,2,2015,11,13,frodo,21,m,focal_participant_left,bangolo,6,m,focal_participant_right,chimpanzee,frodo_bangolo,1,7,2,1.0,roped_interior_side,free_exterior_side,social,non_social,0.08,0.8,1.92,no_pull,5.0,1.0
sanchez2017chimpanzees,2,2015,11,13,frodo,21,m,focal_participant_left,bangolo,6,m,focal_participant_right,chimpanzee,frodo_bangolo,1,7,3,1.0,free_exterior_side,roped_interior_side,social,non_social,0.48,1,no_pull,no_pull,0.0,1.0
sanchez2017chimpanzees,2,2015,11,13,frodo,21,m,focal_participant_left,bangolo,6,m,focal_participant_right,chimpanzee,frodo_bangolo,1,7,4,1.0,roped_interior_side,free_exterior_side,social,non_social,0.48,0.56,1.4,no_pull,5.0,1.0
sanchez2017chimpanzees,2,2015,11,13,frodo,21,m,focal_participant_left,bangolo,6,m,focal_participant_right,chimpanzee,frodo_bangolo,1,7,5,1.0,free_exterior_side,roped_interior_side,non_social,non_social,2,1.44,no_pull,no_pull,1.0,1.0
sanchez2017chimpanzees,2,2015,11,13,frodo,21,m,focal_participant_left,bangolo,6,m,focal_participant_right,chimpanzee,frodo_bangolo,1,7,6,1.0,free_exterior_side,roped_interior_side,social,non_social,0.12,0.84,1.88,no_pull,1.0,1.0
sanchez2017chimpanzees,2,2015,11,13,frodo,21,m,focal_participant_left,bangolo,6,m,focal_participant_right,chimpanzee,frodo_bangolo,1,7,7,1.0,roped_interior_side,free_exterior_side,social,non_social,0.12,11.24,5.8,no_pull,5.0,1.0
sanchez2017chimpanzees,2,2015,11,13,frodo,21,m,focal_participant_left,bangolo,6,m,focal_participant_right,chimpanzee,frodo_bangolo,1,7,8,1.0,free_exterior_side,roped_interior_side,social,non_social,0.44,0.6,2.44,no_pull,1.0,1.0
sanchez2017chimpanzees,2,2015,11,21,bangolo,6,m,focal_participant_left,frodo,21,m,focal_participant_right,chimpanzee,bangolo_frodo,1,8,1,0.0,roped_interior_side,free_exterior_side,social,social,7.16,1.52,no_pull,0.6,1.0,5.0
sanchez2017chimpanzees,2,2015,11,22,bangolo,6,m,focal_participant_left,frodo,21,m,focal_participant_right,chimpanzee,bangolo_frodo,1,8,2,0.0,roped_interior_side,free_exterior_side,no_choice,social,door_not_opened,0.12,no_pull,1.68,0.0,5.0
sanchez2017chimpanzees,2,2015,11,22,bangolo,6,m,focal_participant_left,frodo,21,m,focal_participant_right,chimpanzee,bangolo_frodo,1,8,3,0.0,free_exterior_side,roped_interior_side,social,social,11.56,1.4,no_pull,2.48,5.0,1.0
sanchez2017chimpanzees,2,2015,11,22,bangolo,6,m,focal_participant_left,frodo,21,m,focal_participant_right,chimpanzee,bangolo_frodo,1,8,4,0.0,roped_interior_side,free_exterior_side,no_choice,social,door_not_opened,0.08,no_pull,1.84,0.0,5.0
sanchez2017chimpanzees,2,2015,11,22,bangolo,6,m,focal_participant_left,frodo,21,m,focal_participant_right,chimpanzee,bangolo_frodo,1,8,5,0.0,roped_interior_side,free_exterior_side,social,social,10.28,0.68,no_pull,4.08,1.0,5.0
sanchez2017chimpanzees,2,2015,11,22,bangolo,6,m,focal_participant_left,frodo,21,m,focal_participant_right,chimpanzee,bangolo_frodo,1,8,6,0.0,free_exterior_side,roped_interior_side,no_choice,social,door_not_opened,0.8,no_pull,3.72,0.0,1.0
sanchez2017chimpanzees,2,2015,11,22,bangolo,6,m,focal_participant_left,frodo,21,m,focal_participant_right,chimpanzee,bangolo_frodo,1,8,7,0.0,free_exterior_side,roped_interior_side,social,social,7.84,0.16,no_pull,1.36,5.0,1.0
sanchez2017chimpanzees,2,2015,11,22,bangolo,6,m,focal_participant_left,frodo,21,m,focal_participant_right,chimpanzee,bangolo_frodo,1,8,8,0.0,free_exterior_side,roped_interior_side,no_choice,social,door_not_opened,1.36,no_pull,1.96,0.0,1.0
sanchez2017chimpanzees,2,2015,12,10,frodo,22,m,focal_participant_left,sandra,22,f,focal_participant_right,chimpanzee,frodo_sandra,3,1,1,1.0,free_exterior_side,roped_interior_side,social,non_social,3.8,1.32,3.8,no_pull,0.0,1.0
sanchez2017chimpanzees,2,2015,12,10,frodo,22,m,focal_participant_left,sandra,22,f,focal_participant_right,chimpanzee,frodo_sandra,3,1,2,1.0,roped_interior_side,free_exterior_side,no_choice,non_social,door_not_opened,0.6,no_pull,no_pull,0.0,1.0
sanchez2017chimpanzees,2,2015,12,10,frodo,22,m,focal_participant_left,sandra,22,f,focal_participant_right,chimpanzee,frodo_sandra,3,1,3,1.0,free_exterior_side,roped_interior_side,no_choice,non_social,door_not_opened,1.12,no_pull,no_pull,0.0,1.0
sanchez2017chimpanzees,2,2015,12,10,frodo,22,m,focal_participant_left,sandra,22,f,focal_participant_right,chimpanzee,frodo_sandra,3,1,4,1.0,roped_interior_side,free_exterior_side,social,social,1,1.24,1.24,no_pull,5.0,1.0
sanchez2017chimpanzees,2,2015,12,10,frodo,22,m,focal_participant_left,sandra,22,f,focal_participant_right,chimpanzee,frodo_sandra,3,1,5,1.0,free_exterior_side,roped_interior_side,social,non_social,3.12,1.6,no_pull,no_pull,0.0,1.0
sanchez2017chimpanzees,2,2015,12,10,frodo,22,m,focal_participant_left,sandra,22,f,focal_participant_right,chimpanzee,frodo_sandra,3,1,6,1.0,roped_interior_side,free_exterior_side,social,non_social,0.92,0.88,1.08,no_pull,5.0,1.0
sanchez2017chimpanzees,2,2015,12,10,frodo,22,m,focal_participant_left,sandra,22,f,focal_participant_right,chimpanzee,frodo_sandra,3,1,7,1.0,free_exterior_side,roped_interior_side,social,non_social,1.04,1.88,no_pull,no_pull,0.0,1.0
sanchez2017chimpanzees,2,2015,12,10,frodo,22,m,focal_participant_left,sandra,22,f,focal_participant_right,chimpanzee,frodo_sandra,3,1,8,1.0,roped_interior_side,free_exterior_side,social,social,0.52,0.92,1.2,no_pull,5.0,1.0
sanchez2017chimpanzees,2,2015,12,11,sandra,22,f,focal_participant_left,frodo,22,m,focal_participant_right,chimpanzee,sandra_frodo,3,2,1,0.0,roped_interior_side,free_exterior_side,social,social,4.28,12.6,5.68,no_pull,5.0,1.0
sanchez2017chimpanzees,2,2015,12,11,sandra,22,f,focal_participant_left,frodo,22,m,focal_participant_right,chimpanzee,sandra_frodo,3,2,2,0.0,roped_interior_side,free_exterior_side,social,social,2.16,5.44,1.68,no_pull,5.0,1.0
sanchez2017chimpanzees,2,2015,12,11,sandra,22,f,focal_participant_left,frodo,22,m,focal_participant_right,chimpanzee,sandra_frodo,3,2,3,0.0,free_exterior_side,roped_interior_side,social,no_choice,4.96,door_not_opened,no_pull,no_pull,0.0,0.0
sanchez2017chimpanzees,2,2015,12,11,sandra,22,f,focal_participant_left,frodo,22,m,focal_participant_right,chimpanzee,sandra_frodo,3,2,4,0.0,roped_interior_side,free_exterior_side,social,social,0.24,6.4,4.28,no_pull,5.0,1.0
sanchez2017chimpanzees,2,2015,12,11,sandra,22,f,focal_participant_left,frodo,22,m,focal_participant_right,chimpanzee,sandra_frodo,3,2,5,0.0,free_exterior_side,roped_interior_side,social,social,0.12,1.4,1.84,no_pull,1.0,5.0
sanchez2017chimpanzees,2,2015,12,11,sandra,22,f,focal_participant_left,frodo,22,m,focal_participant_right,chimpanzee,sandra_frodo,3,2,6,0.0,free_exterior_side,roped_interior_side,social,social,0.36,2.76,no_pull,no_pull,0.0,0.0
sanchez2017chimpanzees,2,2015,12,11,sandra,22,f,focal_participant_left,frodo,22,m,focal_participant_right,chimpanzee,sandra_frodo,3,2,7,0.0,roped_interior_side,free_exterior_side,social,social,0.32,3.88,0.88,no_pull,5.0,1.0
sanchez2017chimpanzees,2,2015,12,11,sandra,22,f,focal_participant_left,frodo,22,m,focal_participant_right,chimpanzee,sandra_frodo,3,2,8,0.0,free_exterior_side,roped_interior_side,social,social,0.24,3.56,1.76,no_pull,1.0,5.0
sanchez2017chimpanzees,2,2015,12,13,frodo,22,m,focal_participant_left,sandra,22,f,focal_participant_right,chimpanzee,frodo_sandra,3,3,1,1.0,free_exterior_side,roped_interior_side,non_social,non_social,7.28,1.64,no_pull,no_pull,1.0,1.0
sanchez2017chimpanzees,2,2015,12,13,frodo,22,m,focal_participant_left,sandra,22,f,focal_participant_right,chimpanzee,frodo_sandra,3,3,2,1.0,free_exterior_side,roped_interior_side,non_social,non_social,0.28,0.92,no_pull,no_pull,1.0,1.0
sanchez2017chimpanzees,2,2015,12,13,frodo,22,m,focal_participant_left,sandra,22,f,focal_participant_right,chimpanzee,frodo_sandra,3,3,3,1.0,roped_interior_side,free_exterior_side,social,social,2.12,1.44,no_pull,no_pull,0.0,0.0
sanchez2017chimpanzees,2,2015,12,13,frodo,22,m,focal_participant_left,sandra,22,f,focal_participant_right,chimpanzee,frodo_sandra,3,3,4,1.0,roped_interior_side,free_exterior_side,social,social,0.36,0.32,1.24,1.6,5.0,1.0
sanchez2017chimpanzees,2,2015,12,13,frodo,22,m,focal_participant_left,sandra,22,f,focal_participant_right,chimpanzee,frodo_sandra,3,3,5,1.0,free_exterior_side,roped_interior_side,social,social,0.44,0.32,no_pull,1.32,5.0,1.0
sanchez2017chimpanzees,2,2015,12,13,frodo,22,m,focal_participant_left,sandra,22,f,focal_participant_right,chimpanzee,frodo_sandra,3,3,6,1.0,roped_interior_side,free_exterior_side,non_social,social,4.84,0.68,no_pull,1.28,1.0,5.0
sanchez2017chimpanzees,2,2015,12,13,frodo,22,m,focal_participant_left,sandra,22,f,focal_participant_right,chimpanzee,frodo_sandra,3,3,7,1.0,free_exterior_side,roped_interior_side,social,non_social,0.28,0.64,no_pull,no_pull,0.0,1.0
sanchez2017chimpanzees,2,2015,12,13,frodo,22,m,focal_participant_left,sandra,22,f,focal_participant_right,chimpanzee,frodo_sandra,3,3,8,1.0,roped_interior_side,free_exterior_side,social,social,0.84,0.12,2,no_pull,5.0,1.0
sanchez2017chimpanzees,2,2015,12,14,sandra,22,f,focal_participant_left,frodo,22,m,focal_participant_right,chimpanzee,sandra_frodo,3,4,1,5.0,roped_interior_side,free_exterior_side,social,non_social,0.48,1.88,1.44,no_pull,5.0,5.0
sanchez2017chimpanzees,2,2015,12,14,sandra,22,f,focal_participant_left,frodo,22,m,focal_participant_right,chimpanzee,sandra_frodo,3,4,2,5.0,roped_interior_side,free_exterior_side,social,non_social,1.68,4.04,0.96,no_pull,5.0,5.0
sanchez2017chimpanzees,2,2015,12,14,sandra,22,f,focal_participant_left,frodo,22,m,focal_participant_right,chimpanzee,sandra_frodo,3,4,3,5.0,free_exterior_side,roped_interior_side,non_social,non_social,1.52,3.48,no_pull,no_pull,5.0,5.0
sanchez2017chimpanzees,2,2015,12,14,sandra,22,f,focal_participant_left,frodo,22,m,focal_participant_right,chimpanzee,sandra_frodo,3,4,4,5.0,free_exterior_side,roped_interior_side,non_social,non_social,0.76,3.12,no_pull,no_pull,5.0,5.0
sanchez2017chimpanzees,2,2015,12,14,sandra,22,f,focal_participant_left,frodo,22,m,focal_participant_right,chimpanzee,sandra_frodo,3,4,5,5.0,roped_interior_side,free_exterior_side,social,non_social,2.4,1.16,8.6,no_pull,5.0,5.0
sanchez2017chimpanzees,2,2015,12,14,sandra,22,f,focal_participant_left,frodo,22,m,focal_participant_right,chimpanzee,sandra_frodo,3,4,6,5.0,free_exterior_side,roped_interior_side,non_social,non_social,1.32,3.08,no_pull,no_pull,5.0,5.0
sanchez2017chimpanzees,2,2015,12,14,sandra,22,f,focal_participant_left,frodo,22,m,focal_participant_right,chimpanzee,sandra_frodo,3,4,7,5.0,free_exterior_side,roped_interior_side,non_social,non_social,1.24,1.12,no_pull,no_pull,5.0,5.0
sanchez2017chimpanzees,2,2015,12,14,sandra,22,f,focal_participant_left,frodo,22,m,focal_participant_right,chimpanzee,sandra_frodo,3,4,8,5.0,roped_interior_side,free_exterior_side,social,non_social,0.88,6.12,2.4,no_pull,5.0,5.0
sanchez2017chimpanzees,2,2015,12,15,frodo,22,m,focal_participant_left,sandra,22,f,focal_participant_right,chimpanzee,frodo_sandra,3,5,1,0.0,free_exterior_side,roped_interior_side,no_choice,no_choice,door_not_opened,door_not_opened,no_pull,no_pull,0.0,0.0
sanchez2017chimpanzees,2,2015,12,15,frodo,22,m,focal_participant_left,sandra,22,f,focal_participant_right,chimpanzee,frodo_sandra,3,5,2,0.0,free_exterior_side,roped_interior_side,no_choice,no_choice,door_not_opened,door_not_opened,no_pull,no_pull,0.0,0.0
sanchez2017chimpanzees,2,2015,12,15,frodo,22,m,focal_participant_left,sandra,22,f,focal_participant_right,chimpanzee,frodo_sandra,3,5,3,0.0,roped_interior_side,free_exterior_side,social,social,1.28,0.52,no_pull,0.96,1.0,5.0
sanchez2017chimpanzees,2,2015,12,15,frodo,22,m,focal_participant_left,sandra,22,f,focal_participant_right,chimpanzee,frodo_sandra,3,5,4,0.0,roped_interior_side,free_exterior_side,social,social,0.32,1.36,1.4,no_pull,5.0,1.0
sanchez2017chimpanzees,2,2015,12,15,frodo,22,m,focal_participant_left,sandra,22,f,focal_participant_right,chimpanzee,frodo_sandra,3,5,5,0.0,roped_interior_side,free_exterior_side,social,social,0.92,0.8,1.56,no_pull,5.0,1.0
sanchez2017chimpanzees,2,2015,12,15,frodo,22,m,focal_participant_left,sandra,22,f,focal_participant_right,chimpanzee,frodo_sandra,3,5,6,0.0,free_exterior_side,roped_interior_side,social,social,4.36,1.64,no_pull,1.84,5.0,1.0
sanchez2017chimpanzees,2,2015,12,15,frodo,22,m,focal_participant_left,sandra,22,f,focal_participant_right,chimpanzee,frodo_sandra,3,5,7,0.0,roped_interior_side,free_exterior_side,social,social,0.08,0.24,5.36,no_pull,5.0,1.0
sanchez2017chimpanzees,2,2015,12,15,frodo,22,m,focal_participant_left,sandra,22,f,focal_participant_right,chimpanzee,frodo_sandra,3,5,8,0.0,free_exterior_side,roped_interior_side,social,social,0.12,0.92,no_pull,9.88,5.0,1.0
sanchez2017chimpanzees,2,2015,12,16,sandra,22,f,focal_participant_left,frodo,22,m,focal_participant_right,chimpanzee,sandra_frodo,3,6,1,3.0,roped_interior_side,free_exterior_side,no_choice,non_social,door_not_opened,1.28,no_pull,no_pull,0.0,3.0
sanchez2017chimpanzees,2,2015,12,16,sandra,22,f,focal_participant_left,frodo,22,m,focal_participant_right,chimpanzee,sandra_frodo,3,6,2,3.0,roped_interior_side,free_exterior_side,non_social,non_social,1.28,0.88,no_pull,no_pull,3.0,3.0
sanchez2017chimpanzees,2,2015,12,16,sandra,22,f,focal_participant_left,frodo,22,m,focal_participant_right,chimpanzee,sandra_frodo,3,6,3,3.0,free_exterior_side,roped_interior_side,non_social,non_social,1.84,3.36,no_pull,no_pull,3.0,3.0
sanchez2017chimpanzees,2,2015,12,16,sandra,22,f,focal_participant_left,frodo,22,m,focal_participant_right,chimpanzee,sandra_frodo,3,6,4,3.0,roped_interior_side,free_exterior_side,non_social,non_social,2.24,0.64,no_pull,no_pull,3.0,3.0
sanchez2017chimpanzees,2,2015,12,16,sandra,22,f,focal_participant_left,frodo,22,m,focal_participant_right,chimpanzee,sandra_frodo,3,6,5,3.0,free_exterior_side,roped_interior_side,non_social,non_social,2.4,2.76,no_pull,no_pull,3.0,3.0
sanchez2017chimpanzees,2,2015,12,16,sandra,22,f,focal_participant_left,frodo,22,m,focal_participant_right,chimpanzee,sandra_frodo,3,6,6,3.0,free_exterior_side,roped_interior_side,non_social,non_social,1.44,1.12,no_pull,no_pull,3.0,3.0
sanchez2017chimpanzees,2,2015,12,16,sandra,22,f,focal_participant_left,frodo,22,m,focal_participant_right,chimpanzee,sandra_frodo,3,6,7,3.0,roped_interior_side,free_exterior_side,social,non_social,0.88,0.92,2.8,no_pull,5.0,3.0
sanchez2017chimpanzees,2,2015,12,16,sandra,22,f,focal_participant_left,frodo,22,m,focal_participant_right,chimpanzee,sandra_frodo,3,6,8,3.0,free_exterior_side,roped_interior_side,non_social,non_social,2.24,1,no_pull,no_pull,3.0,3.0
sanchez2017chimpanzees,2,2015,12,17,frodo,22,m,focal_participant_left,sandra,22,f,focal_participant_right,chimpanzee,frodo_sandra,3,7,1,5.0,free_exterior_side,roped_interior_side,non_social,non_social,0.92,0.92,no_pull,no_pull,5.0,5.0
sanchez2017chimpanzees,2,2015,12,17,frodo,22,m,focal_participant_left,sandra,22,f,focal_participant_right,chimpanzee,frodo_sandra,3,7,2,5.0,roped_interior_side,free_exterior_side,non_social,non_social,8.76,0.84,no_pull,no_pull,5.0,5.0
sanchez2017chimpanzees,2,2015,12,17,frodo,22,m,focal_participant_left,sandra,22,f,focal_participant_right,chimpanzee,frodo_sandra,3,7,3,5.0,free_exterior_side,roped_interior_side,non_social,non_social,0.72,0.8,no_pull,no_pull,5.0,5.0
sanchez2017chimpanzees,2,2015,12,17,frodo,22,m,focal_participant_left,sandra,22,f,focal_participant_right,chimpanzee,frodo_sandra,3,7,4,5.0,roped_interior_side,free_exterior_side,non_social,non_social,0.88,1.12,no_pull,no_pull,5.0,5.0
sanchez2017chimpanzees,2,2015,12,17,frodo,22,m,focal_participant_left,sandra,22,f,focal_participant_right,chimpanzee,frodo_sandra,3,7,5,5.0,free_exterior_side,roped_interior_side,non_social,non_social,0.8,3.24,no_pull,no_pull,5.0,5.0
sanchez2017chimpanzees,2,2015,12,17,frodo,22,m,focal_participant_left,sandra,22,f,focal_participant_right,chimpanzee,frodo_sandra,3,7,6,5.0,roped_interior_side,free_exterior_side,non_social,non_social,2.12,0.88,no_pull,no_pull,5.0,5.0
sanchez2017chimpanzees,2,2015,12,17,frodo,22,m,focal_participant_left,sandra,22,f,focal_participant_right,chimpanzee,frodo_sandra,3,7,7,5.0,roped_interior_side,free_exterior_side,non_social,non_social,1.44,3.04,no_pull,no_pull,5.0,5.0
sanchez2017chimpanzees,2,2015,12,17,frodo,22,m,focal_participant_left,sandra,22,f,focal_participant_right,chimpanzee,frodo_sandra,3,7,8,5.0,free_exterior_side,roped_interior_side,non_social,non_social,0.88,0.92,no_pull,no_pull,5.0,5.0
sanchez2017chimpanzees,2,2015,12,18,sandra,22,f,focal_participant_left,frodo,22,m,focal_participant_right,chimpanzee,sandra_frodo,3,8,1,3.0,free_exterior_side,roped_interior_side,non_social,non_social,2.12,0.76,no_pull,no_pull,3.0,3.0
sanchez2017chimpanzees,2,2015,12,18,sandra,22,f,focal_participant_left,frodo,22,m,focal_participant_right,chimpanzee,sandra_frodo,3,8,2,3.0,free_exterior_side,roped_interior_side,non_social,non_social,1.76,0.4,no_pull,no_pull,3.0,3.0
sanchez2017chimpanzees,2,2015,12,18,sandra,22,f,focal_participant_left,frodo,22,m,focal_participant_right,chimpanzee,sandra_frodo,3,8,3,3.0,roped_interior_side,free_exterior_side,non_social,non_social,1.44,0.56,no_pull,no_pull,3.0,3.0
sanchez2017chimpanzees,2,2015,12,18,sandra,22,f,focal_participant_left,frodo,22,m,focal_participant_right,chimpanzee,sandra_frodo,3,8,4,3.0,roped_interior_side,free_exterior_side,non_social,non_social,2.84,0.64,no_pull,no_pull,3.0,3.0
sanchez2017chimpanzees,2,2015,12,18,sandra,22,f,focal_participant_left,frodo,22,m,focal_participant_right,chimpanzee,sandra_frodo,3,8,5,3.0,free_exterior_side,roped_interior_side,non_social,non_social,2.56,0.12,no_pull,no_pull,3.0,3.0
sanchez2017chimpanzees,2,2015,12,18,sandra,22,f,focal_participant_left,frodo,22,m,focal_participant_right,chimpanzee,sandra_frodo,3,8,6,3.0,roped_interior_side,free_exterior_side,non_social,non_social,2.08,0.44,no_pull,no_pull,3.0,3.0
sanchez2017chimpanzees,2,2015,12,18,sandra,22,f,focal_participant_left,frodo,22,m,focal_participant_right,chimpanzee,sandra_frodo,3,8,7,3.0,free_exterior_side,roped_interior_side,non_social,non_social,1.84,1.64,no_pull,no_pull,3.0,3.0
sanchez2017chimpanzees,2,2015,12,18,sandra,22,f,focal_participant_left,frodo,22,m,focal_participant_right,chimpanzee,sandra_frodo,3,8,8,3.0,roped_interior_side,free_exterior_side,non_social,non_social,3,1.36,no_pull,no_pull,3.0,3.0
sanchez2017chimpanzees,2,2015,11,28,tai,13,f,focal_participant_left,frodo,22,m,focal_participant_right,chimpanzee,tai_frodo,2,1,1,1.0,roped_interior_side,free_exterior_side,non_social,social,1.36,0.28,no_pull,1.68,1.0,5.0
sanchez2017chimpanzees,2,2015,11,28,tai,13,f,focal_participant_left,frodo,22,m,focal_participant_right,chimpanzee,tai_frodo,2,1,2,1.0,roped_interior_side,free_exterior_side,non_social,social,1.56,0.4,no_pull,2.28,1.0,5.0
sanchez2017chimpanzees,2,2015,11,28,tai,13,f,focal_participant_left,frodo,22,m,focal_participant_right,chimpanzee,tai_frodo,2,1,3,1.0,free_exterior_side,roped_interior_side,non_social,non_social,5.52,0.72,no_pull,no_pull,1.0,1.0
sanchez2017chimpanzees,2,2015,11,28,tai,13,f,focal_participant_left,frodo,22,m,focal_participant_right,chimpanzee,tai_frodo,2,1,4,1.0,roped_interior_side,free_exterior_side,non_social,social,5.56,0.36,no_pull,1.48,1.0,5.0
sanchez2017chimpanzees,2,2015,11,28,tai,13,f,focal_participant_left,frodo,22,m,focal_participant_right,chimpanzee,tai_frodo,2,1,5,1.0,free_exterior_side,roped_interior_side,no_choice,social,door_not_opened,0.12,no_pull,1.4,0.0,1.0
sanchez2017chimpanzees,2,2015,11,28,tai,13,f,focal_participant_left,frodo,22,m,focal_participant_right,chimpanzee,tai_frodo,2,1,6,1.0,free_exterior_side,roped_interior_side,non_social,social,0.8,1.12,no_pull,1.64,1.0,1.0
sanchez2017chimpanzees,2,2015,11,28,tai,13,f,focal_participant_left,frodo,22,m,focal_participant_right,chimpanzee,tai_frodo,2,1,7,1.0,roped_interior_side,free_exterior_side,social,social,0.48,0.4,no_pull,1.2,1.0,5.0
sanchez2017chimpanzees,2,2015,11,28,tai,13,f,focal_participant_left,frodo,22,m,focal_participant_right,chimpanzee,tai_frodo,2,1,8,1.0,free_exterior_side,roped_interior_side,social,social,0.96,0.44,1.08,1.88,5.0,1.0
sanchez2017chimpanzees,2,2015,11,29,frodo,22,m,focal_participant_left,tai,13,f,focal_participant_right,chimpanzee,frodo_tai,2,2,1,5.0,roped_interior_side,free_exterior_side,social,non_social,0.24,2.16,1.44,no_pull,5.0,5.0
sanchez2017chimpanzees,2,2015,11,29,frodo,22,m,focal_participant_left,tai,13,f,focal_participant_right,chimpanzee,frodo_tai,2,2,2,5.0,roped_interior_side,free_exterior_side,non_social,non_social,1.2,1.04,no_pull,no_pull,5.0,5.0
sanchez2017chimpanzees,2,2015,11,29,frodo,22,m,focal_participant_left,tai,13,f,focal_participant_right,chimpanzee,frodo_tai,2,2,3,5.0,free_exterior_side,roped_interior_side,non_social,non_social,0.56,1.64,no_pull,no_pull,5.0,5.0
sanchez2017chimpanzees,2,2015,11,29,frodo,22,m,focal_participant_left,tai,13,f,focal_participant_right,chimpanzee,frodo_tai,2,2,4,5.0,free_exterior_side,roped_interior_side,non_social,non_social,0.6,0.64,no_pull,no_pull,5.0,5.0
sanchez2017chimpanzees,2,2015,11,29,frodo,22,m,focal_participant_left,tai,13,f,focal_participant_right,chimpanzee,frodo_tai,2,2,5,5.0,roped_interior_side,free_exterior_side,social,non_social,0.52,door_not_opened,2.68,no_pull,5.0,5.0
sanchez2017chimpanzees,2,2015,11,29,frodo,22,m,focal_participant_left,tai,13,f,focal_participant_right,chimpanzee,frodo_tai,2,2,6,5.0,free_exterior_side,roped_interior_side,non_social,non_social,0.96,0.64,no_pull,no_pull,5.0,5.0
sanchez2017chimpanzees,2,2015,11,29,frodo,22,m,focal_participant_left,tai,13,f,focal_participant_right,chimpanzee,frodo_tai,2,2,7,5.0,roped_interior_side,free_exterior_side,social,non_social,0.4,1.32,5.24,no_pull,5.0,5.0
sanchez2017chimpanzees,2,2015,11,29,frodo,22,m,focal_participant_left,tai,13,f,focal_participant_right,chimpanzee,frodo_tai,2,2,8,5.0,free_exterior_side,roped_interior_side,non_social,non_social,0.96,0.76,no_pull,no_pull,5.0,5.0
sanchez2017chimpanzees,2,2015,11,30,tai,13,f,focal_participant_left,frodo,22,m,focal_participant_right,chimpanzee,tai_frodo,2,3,1,5.0,roped_interior_side,free_exterior_side,non_social,non_social,0.8,1.8,no_pull,no_pull,5.0,5.0
sanchez2017chimpanzees,2,2015,11,30,tai,13,f,focal_participant_left,frodo,22,m,focal_participant_right,chimpanzee,tai_frodo,2,3,2,5.0,free_exterior_side,roped_interior_side,non_social,non_social,2.12,0.8,no_pull,no_pull,5.0,5.0
sanchez2017chimpanzees,2,2015,11,30,tai,13,f,focal_participant_left,frodo,22,m,focal_participant_right,chimpanzee,tai_frodo,2,3,3,5.0,roped_interior_side,free_exterior_side,non_social,non_social,0.56,0.56,no_pull,no_pull,5.0,5.0
sanchez2017chimpanzees,2,2015,11,30,tai,13,f,focal_participant_left,frodo,22,m,focal_participant_right,chimpanzee,tai_frodo,2,3,4,5.0,free_exterior_side,roped_interior_side,non_social,non_social,1.4,0.48,no_pull,no_pull,5.0,5.0
sanchez2017chimpanzees,2,2015,11,30,tai,13,f,focal_participant_left,frodo,22,m,focal_participant_right,chimpanzee,tai_frodo,2,3,5,5.0,free_exterior_side,roped_interior_side,non_social,non_social,0.88,0.8,no_pull,no_pull,5.0,5.0
sanchez2017chimpanzees,2,2015,11,30,tai,13,f,focal_participant_left,frodo,22,m,focal_participant_right,chimpanzee,tai_frodo,2,3,6,5.0,free_exterior_side,roped_interior_side,non_social,non_social,0.8,0.76,no_pull,no_pull,5.0,5.0
sanchez2017chimpanzees,2,2015,11,30,tai,13,f,focal_participant_left,frodo,22,m,focal_participant_right,chimpanzee,tai_frodo,2,3,7,5.0,roped_interior_side,free_exterior_side,non_social,non_social,1.12,0.6,no_pull,no_pull,5.0,5.0
sanchez2017chimpanzees,2,2015,11,30,tai,13,f,focal_participant_left,frodo,22,m,focal_participant_right,chimpanzee,tai_frodo,2,3,8,5.0,roped_interior_side,free_exterior_side,non_social,non_social,1.56,0.76,no_pull,no_pull,5.0,5.0
sanchez2017chimpanzees,2,2015,12,1,frodo,22,m,focal_participant_left,tai,13,f,focal_participant_right,chimpanzee,frodo_tai,2,4,1,1.0,free_exterior_side,roped_interior_side,non_social,non_social,0.88,1.48,no_pull,no_pull,1.0,1.0
sanchez2017chimpanzees,2,2015,12,1,frodo,22,m,focal_participant_left,tai,13,f,focal_participant_right,chimpanzee,frodo_tai,2,4,2,1.0,free_exterior_side,roped_interior_side,social,non_social,0.6,0.96,2.8,no_pull,1.0,1.0
sanchez2017chimpanzees,2,2015,12,1,frodo,22,m,focal_participant_left,tai,13,f,focal_participant_right,chimpanzee,frodo_tai,2,4,3,1.0,roped_interior_side,free_exterior_side,social,non_social,0.12,2.12,3.72,no_pull,5.0,1.0
sanchez2017chimpanzees,2,2015,12,1,frodo,22,m,focal_participant_left,tai,13,f,focal_participant_right,chimpanzee,frodo_tai,2,4,4,1.0,roped_interior_side,free_exterior_side,social,non_social,0.24,1.04,1.92,no_pull,5.0,1.0
sanchez2017chimpanzees,2,2015,12,1,frodo,22,m,focal_participant_left,tai,13,f,focal_participant_right,chimpanzee,frodo_tai,2,4,5,1.0,free_exterior_side,roped_interior_side,non_social,non_social,1.64,1.04,no_pull,no_pull,1.0,1.0
sanchez2017chimpanzees,2,2015,12,1,frodo,22,m,focal_participant_left,tai,13,f,focal_participant_right,chimpanzee,frodo_tai,2,4,6,1.0,roped_interior_side,free_exterior_side,social,non_social,0.4,1.64,3,no_pull,5.0,1.0
sanchez2017chimpanzees,2,2015,12,1,frodo,22,m,focal_participant_left,tai,13,f,focal_participant_right,chimpanzee,frodo_tai,2,4,7,1.0,free_exterior_side,roped_interior_side,non_social,non_social,0.88,0.88,no_pull,no_pull,1.0,1.0
sanchez2017chimpanzees,2,2015,12,1,frodo,22,m,focal_participant_left,tai,13,f,focal_participant_right,chimpanzee,frodo_tai,2,4,8,1.0,roped_interior_side,free_exterior_side,social,non_social,0.4,1.52,2.12,no_pull,5.0,1.0
sanchez2017chimpanzees,2,2015,12,2,tai,13,f,focal_participant_left,frodo,22,m,focal_participant_right,chimpanzee,tai_frodo,2,5,1,0.0,free_exterior_side,roped_interior_side,no_choice,social,door_not_opened,0.48,no_pull,4,0.0,1.0
sanchez2017chimpanzees,2,2015,12,2,tai,13,f,focal_participant_left,frodo,22,m,focal_participant_right,chimpanzee,tai_frodo,2,5,2,0.0,free_exterior_side,roped_interior_side,social,social,9.96,0.64,no_pull,2.32,5.0,1.0
sanchez2017chimpanzees,2,2015,12,2,tai,13,f,focal_participant_left,frodo,22,m,focal_participant_right,chimpanzee,tai_frodo,2,5,3,0.0,free_exterior_side,roped_interior_side,social,social,7.24,0.64,no_pull,2.96,5.0,1.0
sanchez2017chimpanzees,2,2015,12,2,tai,13,f,focal_participant_left,frodo,22,m,focal_participant_right,chimpanzee,tai_frodo,2,5,4,0.0,free_exterior_side,roped_interior_side,social,social,8.12,0.92,no_pull,2.04,5.0,1.0
sanchez2017chimpanzees,2,2015,12,2,tai,13,f,focal_participant_left,frodo,22,m,focal_participant_right,chimpanzee,tai_frodo,2,5,5,0.0,roped_interior_side,free_exterior_side,social,social,8.12,0.36,no_pull,3.16,1.0,5.0
sanchez2017chimpanzees,2,2015,12,2,tai,13,f,focal_participant_left,frodo,22,m,focal_participant_right,chimpanzee,tai_frodo,2,5,6,0.0,roped_interior_side,free_exterior_side,social,social,6.48,0.72,no_pull,1.92,1.0,5.0
sanchez2017chimpanzees,2,2015,12,2,tai,13,f,focal_participant_left,frodo,22,m,focal_participant_right,chimpanzee,tai_frodo,2,5,7,0.0,roped_interior_side,free_exterior_side,social,social,2.36,0.44,4.72,no_pull,5.0,1.0
sanchez2017chimpanzees,2,2015,12,2,tai,13,f,focal_participant_left,frodo,22,m,focal_participant_right,chimpanzee,tai_frodo,2,5,8,0.0,roped_interior_side,free_exterior_side,social,social,3.2,0.6,4.56,no_pull,5.0,1.0
sanchez2017chimpanzees,2,2015,12,4,frodo,22,m,focal_participant_left,tai,13,f,focal_participant_right,chimpanzee,frodo_tai,2,6,1,0.0,free_exterior_side,roped_interior_side,social,social,1.32,6.52,1.44,no_pull,1.0,5.0
sanchez2017chimpanzees,2,2015,12,4,frodo,22,m,focal_participant_left,tai,13,f,focal_participant_right,chimpanzee,frodo_tai,2,6,2,0.0,roped_interior_side,free_exterior_side,social,no_choice,0.12,door_not_opened,2.24,no_pull,5.0,0.0
sanchez2017chimpanzees,2,2015,12,4,frodo,22,m,focal_participant_left,tai,13,f,focal_participant_right,chimpanzee,frodo_tai,2,6,3,0.0,roped_interior_side,free_exterior_side,social,social,0.32,6.44,1.64,no_pull,5.0,1.0
sanchez2017chimpanzees,2,2015,12,4,frodo,22,m,focal_participant_left,tai,13,f,focal_participant_right,chimpanzee,frodo_tai,2,6,4,0.0,roped_interior_side,free_exterior_side,social,social,0.12,1,1.8,1.72,5.0,1.0
sanchez2017chimpanzees,2,2015,12,4,frodo,22,m,focal_participant_left,tai,13,f,focal_participant_right,chimpanzee,frodo_tai,2,6,5,0.0,roped_interior_side,free_exterior_side,social,social,0.12,0.36,2.68,no_pull,5.0,1.0
sanchez2017chimpanzees,2,2015,12,4,frodo,22,m,focal_participant_left,tai,13,f,focal_participant_right,chimpanzee,frodo_tai,2,6,6,0.0,free_exterior_side,roped_interior_side,social,non_social,10.48,1.48,no_pull,no_pull,0.0,0.0
sanchez2017chimpanzees,2,2015,12,4,frodo,22,m,focal_participant_left,tai,13,f,focal_participant_right,chimpanzee,frodo_tai,2,6,7,0.0,free_exterior_side,roped_interior_side,social,social,0.96,6.56,1.36,no_pull,1.0,5.0
sanchez2017chimpanzees,2,2015,12,4,frodo,22,m,focal_participant_left,tai,13,f,focal_participant_right,chimpanzee,frodo_tai,2,6,8,0.0,free_exterior_side,roped_interior_side,social,social,0.8,5.48,1.48,no_pull,1.0,5.0
sanchez2017chimpanzees,2,2015,12,5,tai,13,f,focal_participant_left,frodo,22,m,focal_participant_right,chimpanzee,tai_frodo,2,7,1,3.0,free_exterior_side,roped_interior_side,non_social,non_social,3.32,0.88,no_pull,no_pull,3.0,3.0
sanchez2017chimpanzees,2,2015,12,5,tai,13,f,focal_participant_left,frodo,22,m,focal_participant_right,chimpanzee,tai_frodo,2,7,2,3.0,roped_interior_side,free_exterior_side,social,non_social,1.52,0.52,5,no_pull,5.0,3.0
sanchez2017chimpanzees,2,2015,12,5,tai,13,f,focal_participant_left,frodo,22,m,focal_participant_right,chimpanzee,tai_frodo,2,7,3,3.0,roped_interior_side,free_exterior_side,social,non_social,2.44,1.32,1.36,no_pull,5.0,3.0
sanchez2017chimpanzees,2,2015,12,5,tai,13,f,focal_participant_left,frodo,22,m,focal_participant_right,chimpanzee,tai_frodo,2,7,4,3.0,roped_interior_side,free_exterior_side,social,non_social,1.24,0.84,3.72,no_pull,5.0,3.0
sanchez2017chimpanzees,2,2015,12,5,tai,13,f,focal_participant_left,frodo,22,m,focal_participant_right,chimpanzee,tai_frodo,2,7,5,3.0,free_exterior_side,roped_interior_side,non_social,non_social,2.96,0.96,no_pull,no_pull,3.0,3.0
sanchez2017chimpanzees,2,2015,12,5,tai,13,f,focal_participant_left,frodo,22,m,focal_participant_right,chimpanzee,tai_frodo,2,7,6,3.0,free_exterior_side,roped_interior_side,non_social,non_social,6.12,0.76,no_pull,no_pull,3.0,3.0
sanchez2017chimpanzees,2,2015,12,5,tai,13,f,focal_participant_left,frodo,22,m,focal_participant_right,chimpanzee,tai_frodo,2,7,7,3.0,free_exterior_side,roped_interior_side,non_social,non_social,1.92,0.8,no_pull,no_pull,3.0,3.0
sanchez2017chimpanzees,2,2015,12,5,tai,13,f,focal_participant_left,frodo,22,m,focal_participant_right,chimpanzee,tai_frodo,2,7,8,3.0,roped_interior_side,free_exterior_side,social,non_social,0.8,1.28,4.04,no_pull,5.0,3.0
sanchez2017chimpanzees,2,2015,12,9,frodo,22,m,focal_participant_left,tai,13,f,focal_participant_right,chimpanzee,frodo_tai,2,8,1,3.0,free_exterior_side,roped_interior_side,non_social,no_choice,0.76,door_not_opened,no_pull,no_pull,3.0,0.0
sanchez2017chimpanzees,2,2015,12,9,frodo,22,m,focal_participant_left,tai,13,f,focal_participant_right,chimpanzee,frodo_tai,2,8,2,3.0,roped_interior_side,free_exterior_side,non_social,no_choice,0.52,door_not_opened,no_pull,no_pull,3.0,0.0
sanchez2017chimpanzees,2,2015,12,9,frodo,22,m,focal_participant_left,tai,13,f,focal_participant_right,chimpanzee,frodo_tai,2,8,3,3.0,free_exterior_side,roped_interior_side,non_social,non_social,0.96,0.72,no_pull,no_pull,3.0,3.0
sanchez2017chimpanzees,2,2015,12,9,frodo,22,m,focal_participant_left,tai,13,f,focal_participant_right,chimpanzee,frodo_tai,2,8,4,3.0,free_exterior_side,roped_interior_side,non_social,non_social,1.28,1.12,no_pull,no_pull,3.0,3.0
sanchez2017chimpanzees,2,2015,12,9,frodo,22,m,focal_participant_left,tai,13,f,focal_participant_right,chimpanzee,frodo_tai,2,8,5,3.0,free_exterior_side,roped_interior_side,non_social,non_social,0.52,1.52,no_pull,no_pull,3.0,3.0
sanchez2017chimpanzees,2,2015,12,9,frodo,22,m,focal_participant_left,tai,13,f,focal_participant_right,chimpanzee,frodo_tai,2,8,6,3.0,roped_interior_side,free_exterior_side,social,non_social,0.16,0.92,2.2,no_pull,5.0,3.0
sanchez2017chimpanzees,2,2015,12,9,frodo,22,m,focal_participant_left,tai,13,f,focal_participant_right,chimpanzee,frodo_tai,2,8,7,3.0,roped_interior_side,free_exterior_side,non_social,non_social,1.08,1.24,no_pull,no_pull,3.0,3.0
sanchez2017chimpanzees,2,2015,12,9,frodo,22,m,focal_participant_left,tai,13,f,focal_participant_right,chimpanzee,frodo_tai,2,8,8,3.0,roped_interior_side,free_exterior_side,social,non_social,0.68,1,2.92,no_pull,5.0,3.0
sanchez2017chimpanzees,2,2015,11,29,kofi,10,m,focal_participant_left,kara,10,f,focal_participant_right,chimpanzee,kofi_kara,3,1,1,1.0,free_exterior_side,roped_interior_side,non_social,social,6.52,2.24,no_pull,1.76,0.0,0.0
sanchez2017chimpanzees,2,2015,11,29,kofi,10,m,focal_participant_left,kara,10,f,focal_participant_right,chimpanzee,kofi_kara,3,1,2,1.0,free_exterior_side,roped_interior_side,social,social,5.68,1.12,no_pull,2.64,5.0,1.0
sanchez2017chimpanzees,2,2015,11,29,kofi,10,m,focal_participant_left,kara,10,f,focal_participant_right,chimpanzee,kofi_kara,3,1,3,1.0,roped_interior_side,free_exterior_side,social,social,0.16,0.32,no_pull,1.72,1.0,5.0
sanchez2017chimpanzees,2,2015,11,29,kofi,10,m,focal_participant_left,kara,10,f,focal_participant_right,chimpanzee,kofi_kara,3,1,4,1.0,free_exterior_side,roped_interior_side,non_social,non_social,9.72,1.44,no_pull,no_pull,1.0,1.0
sanchez2017chimpanzees,2,2015,11,29,kofi,10,m,focal_participant_left,kara,10,f,focal_participant_right,chimpanzee,kofi_kara,3,1,5,1.0,free_exterior_side,roped_interior_side,non_social,non_social,9.08,0.8,no_pull,no_pull,1.0,1.0
sanchez2017chimpanzees,2,2015,11,29,kofi,10,m,focal_participant_left,kara,10,f,focal_participant_right,chimpanzee,kofi_kara,3,1,6,1.0,roped_interior_side,free_exterior_side,social,social,0.24,0.16,no_pull,1.32,1.0,5.0
sanchez2017chimpanzees,2,2015,11,29,kofi,10,m,focal_participant_left,kara,10,f,focal_participant_right,chimpanzee,kofi_kara,3,1,7,1.0,roped_interior_side,free_exterior_side,social,social,0.4,0.16,no_pull,1.6,1.0,5.0
sanchez2017chimpanzees,2,2015,11,29,kofi,10,m,focal_participant_left,kara,10,f,focal_participant_right,chimpanzee,kofi_kara,3,1,8,1.0,roped_interior_side,free_exterior_side,social,social,0.12,0.36,1.12,no_pull,5.0,1.0
sanchez2017chimpanzees,2,2015,11,30,kara,10,f,focal_participant_left,kofi,10,m,focal_participant_right,chimpanzee,kara_kofi,3,2,1,3.0,roped_interior_side,free_exterior_side,non_social,non_social,0.88,1.04,no_pull,no_pull,3.0,3.0
sanchez2017chimpanzees,2,2015,11,30,kara,10,f,focal_participant_left,kofi,10,m,focal_participant_right,chimpanzee,kara_kofi,3,2,2,3.0,roped_interior_side,free_exterior_side,non_social,non_social,0.96,0.6,no_pull,no_pull,3.0,3.0
sanchez2017chimpanzees,2,2015,11,30,kara,10,f,focal_participant_left,kofi,10,m,focal_participant_right,chimpanzee,kara_kofi,3,2,3,3.0,free_exterior_side,roped_interior_side,non_social,non_social,1.12,0.68,no_pull,no_pull,3.0,3.0
sanchez2017chimpanzees,2,2015,11,30,kara,10,f,focal_participant_left,kofi,10,m,focal_participant_right,chimpanzee,kara_kofi,3,2,4,3.0,roped_interior_side,free_exterior_side,non_social,non_social,0.88,0.6,no_pull,no_pull,3.0,3.0
sanchez2017chimpanzees,2,2015,11,30,kara,10,f,focal_participant_left,kofi,10,m,focal_participant_right,chimpanzee,kara_kofi,3,2,5,3.0,free_exterior_side,roped_interior_side,non_social,non_social,1.16,0.6,no_pull,no_pull,3.0,3.0
sanchez2017chimpanzees,2,2015,11,30,kara,10,f,focal_participant_left,kofi,10,m,focal_participant_right,chimpanzee,kara_kofi,3,2,6,3.0,free_exterior_side,roped_interior_side,non_social,non_social,0.96,0.36,no_pull,no_pull,3.0,3.0
sanchez2017chimpanzees,2,2015,11,30,kara,10,f,focal_participant_left,kofi,10,m,focal_participant_right,chimpanzee,kara_kofi,3,2,7,3.0,roped_interior_side,free_exterior_side,non_social,non_social,1.12,0.96,no_pull,no_pull,3.0,3.0
sanchez2017chimpanzees,2,2015,11,30,kara,10,f,focal_participant_left,kofi,10,m,focal_participant_right,chimpanzee,kara_kofi,3,2,8,3.0,free_exterior_side,roped_interior_side,non_social,non_social,0.92,0.76,no_pull,no_pull,3.0,3.0
sanchez2017chimpanzees,2,2015,12,1,kofi,10,m,focal_participant_left,kara,10,f,focal_participant_right,chimpanzee,kofi_kara,3,3,1,1.0,free_exterior_side,roped_interior_side,non_social,non_social,8.24,0.6,no_pull,no_pull,1.0,1.0
sanchez2017chimpanzees,2,2015,12,1,kofi,10,m,focal_participant_left,kara,10,f,focal_participant_right,chimpanzee,kofi_kara,3,3,2,1.0,roped_interior_side,free_exterior_side,social,social,0.4,0.2,no_pull,0.92,1.0,5.0
sanchez2017chimpanzees,2,2015,12,1,kofi,10,m,focal_participant_left,kara,10,f,focal_participant_right,chimpanzee,kofi_kara,3,3,3,1.0,free_exterior_side,roped_interior_side,non_social,non_social,10.4,0.92,no_pull,no_pull,1.0,1.0
sanchez2017chimpanzees,2,2015,12,1,kofi,10,m,focal_participant_left,kara,10,f,focal_participant_right,chimpanzee,kofi_kara,3,3,4,1.0,free_exterior_side,roped_interior_side,non_social,non_social,9.64,1,no_pull,no_pull,1.0,1.0
sanchez2017chimpanzees,2,2015,12,1,kofi,10,m,focal_participant_left,kara,10,f,focal_participant_right,chimpanzee,kofi_kara,3,3,5,1.0,free_exterior_side,roped_interior_side,no_choice,non_social,door_not_opened,0.12,no_pull,no_pull,0.0,1.0
sanchez2017chimpanzees,2,2015,12,1,kofi,10,m,focal_participant_left,kara,10,f,focal_participant_right,chimpanzee,kofi_kara,3,3,6,1.0,roped_interior_side,free_exterior_side,social,social,0.48,0.2,1.12,no_pull,5.0,1.0
sanchez2017chimpanzees,2,2015,12,1,kofi,10,m,focal_participant_left,kara,10,f,focal_participant_right,chimpanzee,kofi_kara,3,3,7,1.0,roped_interior_side,free_exterior_side,social,social,0.2,0.2,0.88,1.04,5.0,1.0
sanchez2017chimpanzees,2,2015,12,1,kofi,10,m,focal_participant_left,kara,10,f,focal_participant_right,chimpanzee,kofi_kara,3,3,8,1.0,roped_interior_side,free_exterior_side,social,non_social,0.12,0.68,2.36,no_pull,5.0,1.0
sanchez2017chimpanzees,2,2015,12,2,kara,10,f,focal_participant_left,kofi,10,m,focal_participant_right,chimpanzee,kara_kofi,3,4,1,5.0,roped_interior_side,free_exterior_side,non_social,non_social,1.12,0.72,no_pull,no_pull,5.0,5.0
sanchez2017chimpanzees,2,2015,12,2,kara,10,f,focal_participant_left,kofi,10,m,focal_participant_right,chimpanzee,kara_kofi,3,4,2,5.0,roped_interior_side,free_exterior_side,non_social,non_social,1.12,0.24,no_pull,no_pull,5.0,5.0
sanchez2017chimpanzees,2,2015,12,2,kara,10,f,focal_participant_left,kofi,10,m,focal_participant_right,chimpanzee,kara_kofi,3,4,3,5.0,free_exterior_side,roped_interior_side,non_social,non_social,1.08,0.48,no_pull,no_pull,5.0,5.0
sanchez2017chimpanzees,2,2015,12,2,kara,10,f,focal_participant_left,kofi,10,m,focal_participant_right,chimpanzee,kara_kofi,3,4,4,5.0,free_exterior_side,roped_interior_side,non_social,non_social,0.76,1.08,no_pull,no_pull,5.0,5.0
sanchez2017chimpanzees,2,2015,12,2,kara,10,f,focal_participant_left,kofi,10,m,focal_participant_right,chimpanzee,kara_kofi,3,4,5,5.0,free_exterior_side,roped_interior_side,non_social,non_social,1.16,0.84,no_pull,no_pull,5.0,5.0
sanchez2017chimpanzees,2,2015,12,2,kara,10,f,focal_participant_left,kofi,10,m,focal_participant_right,chimpanzee,kara_kofi,3,4,6,5.0,roped_interior_side,free_exterior_side,non_social,non_social,0.92,0.88,no_pull,no_pull,5.0,5.0
sanchez2017chimpanzees,2,2015,12,2,kara,10,f,focal_participant_left,kofi,10,m,focal_participant_right,chimpanzee,kara_kofi,3,4,7,5.0,free_exterior_side,roped_interior_side,non_social,non_social,0.92,0.32,no_pull,no_pull,5.0,5.0
sanchez2017chimpanzees,2,2015,12,2,kara,10,f,focal_participant_left,kofi,10,m,focal_participant_right,chimpanzee,kara_kofi,3,4,8,5.0,roped_interior_side,free_exterior_side,non_social,non_social,1.84,0.84,no_pull,no_pull,5.0,5.0
sanchez2017chimpanzees,2,2015,12,3,kofi,10,m,focal_participant_left,kara,10,f,focal_participant_right,chimpanzee,kofi_kara,3,5,1,0.0,free_exterior_side,roped_interior_side,no_choice,non_social,door_not_opened,0.68,no_pull,no_pull,0.0,0.0
sanchez2017chimpanzees,2,2015,12,3,kofi,10,m,focal_participant_left,kara,10,f,focal_participant_right,chimpanzee,kofi_kara,3,5,2,0.0,free_exterior_side,roped_interior_side,social,no_choice,1.28,door_not_opened,no_pull,2,0.0,0.0
sanchez2017chimpanzees,2,2015,12,3,kofi,10,m,focal_participant_left,kara,10,f,focal_participant_right,chimpanzee,kofi_kara,3,5,3,0.0,free_exterior_side,roped_interior_side,social,social,0.8,7.64,no_pull,4.8,5.0,1.0
sanchez2017chimpanzees,2,2015,12,3,kofi,10,m,focal_participant_left,kara,10,f,focal_participant_right,chimpanzee,kofi_kara,3,5,4,0.0,free_exterior_side,roped_interior_side,social,social,2.64,7,no_pull,2.24,5.0,1.0
sanchez2017chimpanzees,2,2015,12,3,kofi,10,m,focal_participant_left,kara,10,f,focal_participant_right,chimpanzee,kofi_kara,3,5,5,0.0,roped_interior_side,free_exterior_side,social,social,0.12,0.2,no_pull,1.44,1.0,5.0
sanchez2017chimpanzees,2,2015,12,3,kofi,10,m,focal_participant_left,kara,10,f,focal_participant_right,chimpanzee,kofi_kara,3,5,6,0.0,roped_interior_side,free_exterior_side,social,social,0.2,0.16,1.24,no_pull,5.0,1.0
sanchez2017chimpanzees,2,2015,12,3,kofi,10,m,focal_participant_left,kara,10,f,focal_participant_right,chimpanzee,kofi_kara,3,5,7,0.0,roped_interior_side,free_exterior_side,social,social,0.2,0.12,0.92,0.68,5.0,1.0
sanchez2017chimpanzees,2,2015,12,3,kofi,10,m,focal_participant_left,kara,10,f,focal_participant_right,chimpanzee,kofi_kara,3,5,8,0.0,roped_interior_side,free_exterior_side,social,social,0.32,0.12,1.48,1.28,5.0,1.0
sanchez2017chimpanzees,2,2015,12,4,kara,10,f,focal_participant_left,kofi,10,m,focal_participant_right,chimpanzee,kara_kofi,3,6,1,3.0,roped_interior_side,free_exterior_side,non_social,non_social,0.92,1.08,no_pull,no_pull,3.0,3.0
sanchez2017chimpanzees,2,2015,12,4,kara,10,f,focal_participant_left,kofi,10,m,focal_participant_right,chimpanzee,kara_kofi,3,6,2,3.0,roped_interior_side,free_exterior_side,non_social,non_social,0.8,0.68,no_pull,no_pull,3.0,3.0
sanchez2017chimpanzees,2,2015,12,4,kara,10,f,focal_participant_left,kofi,10,m,focal_participant_right,chimpanzee,kara_kofi,3,6,3,3.0,free_exterior_side,roped_interior_side,non_social,non_social,0.88,0.44,no_pull,no_pull,3.0,3.0
sanchez2017chimpanzees,2,2015,12,4,kara,10,f,focal_participant_left,kofi,10,m,focal_participant_right,chimpanzee,kara_kofi,3,6,4,3.0,roped_interior_side,free_exterior_side,non_social,non_social,1.36,0.56,no_pull,no_pull,3.0,3.0
sanchez2017chimpanzees,2,2015,12,4,kara,10,f,focal_participant_left,kofi,10,m,focal_participant_right,chimpanzee,kara_kofi,3,6,5,3.0,free_exterior_side,roped_interior_side,non_social,non_social,1.44,1.08,no_pull,no_pull,3.0,3.0
sanchez2017chimpanzees,2,2015,12,4,kara,10,f,focal_participant_left,kofi,10,m,focal_participant_right,chimpanzee,kara_kofi,3,6,6,3.0,free_exterior_side,roped_interior_side,non_social,non_social,1.6,0.56,no_pull,no_pull,3.0,3.0
sanchez2017chimpanzees,2,2015,12,4,kara,10,f,focal_participant_left,kofi,10,m,focal_participant_right,chimpanzee,kara_kofi,3,6,7,3.0,roped_interior_side,free_exterior_side,non_social,non_social,0.88,2.6,no_pull,no_pull,3.0,3.0
sanchez2017chimpanzees,2,2015,12,4,kara,10,f,focal_participant_left,kofi,10,m,focal_participant_right,chimpanzee,kara_kofi,3,6,8,3.0,free_exterior_side,roped_interior_side,non_social,non_social,1.08,0.84,no_pull,no_pull,3.0,3.0
sanchez2017chimpanzees,2,2015,12,5,kofi,10,m,focal_participant_left,kara,10,f,focal_participant_right,chimpanzee,kofi_kara,3,7,1,5.0,free_exterior_side,roped_interior_side,non_social,non_social,0.48,0.76,no_pull,no_pull,5.0,5.0
sanchez2017chimpanzees,2,2015,12,5,kofi,10,m,focal_participant_left,kara,10,f,focal_participant_right,chimpanzee,kofi_kara,3,7,2,5.0,roped_interior_side,free_exterior_side,non_social,non_social,0.64,0.64,no_pull,no_pull,5.0,5.0
sanchez2017chimpanzees,2,2015,12,5,kofi,10,m,focal_participant_left,kara,10,f,focal_participant_right,chimpanzee,kofi_kara,3,7,3,5.0,free_exterior_side,roped_interior_side,non_social,non_social,1,0.76,no_pull,no_pull,5.0,5.0
sanchez2017chimpanzees,2,2015,12,5,kofi,10,m,focal_participant_left,kara,10,f,focal_participant_right,chimpanzee,kofi_kara,3,7,4,5.0,free_exterior_side,roped_interior_side,non_social,non_social,0.72,0.72,no_pull,no_pull,5.0,5.0
sanchez2017chimpanzees,2,2015,12,5,kofi,10,m,focal_participant_left,kara,10,f,focal_participant_right,chimpanzee,kofi_kara,3,7,5,5.0,free_exterior_side,roped_interior_side,non_social,non_social,0.8,0.84,no_pull,no_pull,5.0,5.0
sanchez2017chimpanzees,2,2015,12,5,kofi,10,m,focal_participant_left,kara,10,f,focal_participant_right,chimpanzee,kofi_kara,3,7,6,5.0,roped_interior_side,free_exterior_side,non_social,non_social,1.76,1,no_pull,no_pull,5.0,5.0
sanchez2017chimpanzees,2,2015,12,5,kofi,10,m,focal_participant_left,kara,10,f,focal_participant_right,chimpanzee,kofi_kara,3,7,7,5.0,roped_interior_side,free_exterior_side,non_social,non_social,0.68,0.64,no_pull,no_pull,5.0,5.0
sanchez2017chimpanzees,2,2015,12,5,kofi,10,m,focal_participant_left,kara,10,f,focal_participant_right,chimpanzee,kofi_kara,3,7,8,5.0,roped_interior_side,free_exterior_side,non_social,non_social,0.56,0.36,no_pull,no_pull,5.0,5.0
sanchez2017chimpanzees,2,2015,12,9,kara,10,f,focal_participant_left,kofi,10,m,focal_participant_right,chimpanzee,kara_kofi,3,8,1,0.0,roped_interior_side,free_exterior_side,social,social,9.24,0.4,no_pull,7.16,1.0,5.0
sanchez2017chimpanzees,2,2015,12,9,kara,10,f,focal_participant_left,kofi,10,m,focal_participant_right,chimpanzee,kara_kofi,3,8,2,0.0,roped_interior_side,free_exterior_side,social,social,2.2,0.52,no_pull,1.8,1.0,5.0
sanchez2017chimpanzees,2,2015,12,9,kara,10,f,focal_participant_left,kofi,10,m,focal_participant_right,chimpanzee,kara_kofi,3,8,3,0.0,roped_interior_side,free_exterior_side,social,social,0.2,1.08,2.8,1.44,5.0,1.0
sanchez2017chimpanzees,2,2015,12,9,kara,10,f,focal_participant_left,kofi,10,m,focal_participant_right,chimpanzee,kara_kofi,3,8,4,0.0,free_exterior_side,roped_interior_side,social,social,4.72,7.92,1.6,no_pull,1.0,5.0
sanchez2017chimpanzees,2,2015,12,9,kara,10,f,focal_participant_left,kofi,10,m,focal_participant_right,chimpanzee,kara_kofi,3,8,5,0.0,roped_interior_side,free_exterior_side,social,social,0.32,0.6,1.64,1.04,1.0,5.0
sanchez2017chimpanzees,2,2015,12,9,kara,10,f,focal_participant_left,kofi,10,m,focal_participant_right,chimpanzee,kara_kofi,3,8,6,0.0,free_exterior_side,roped_interior_side,social,social,2.2,7.2,3.16,no_pull,1.0,5.0
sanchez2017chimpanzees,2,2015,12,9,kara,10,f,focal_participant_left,kofi,10,m,focal_participant_right,chimpanzee,kara_kofi,3,8,7,0.0,free_exterior_side,roped_interior_side,social,no_choice,1.04,door_not_opened,4.4,no_pull,0.0,0.0
sanchez2017chimpanzees,2,2015,12,9,kara,10,f,focal_participant_left,kofi,10,m,focal_participant_right,chimpanzee,kara_kofi,3,8,8,0.0,free_exterior_side,roped_interior_side,social,social,1.68,6.68,2.12,no_pull,1.0,5.0
sanchez2017chimpanzees,2,2015,9,19,lome,14,m,focal_participant_left,kara,10,f,focal_participant_right,chimpanzee,lome_kara,1,1,1,5.0,roped_interior_side,free_exterior_side,non_social,social,2.24,2.76,no_pull,no_pull,5.0,0.0
sanchez2017chimpanzees,2,2015,9,19,lome,14,m,focal_participant_left,kara,10,f,focal_participant_right,chimpanzee,lome_kara,1,1,2,5.0,roped_interior_side,free_exterior_side,non_social,social,1.56,0.16,no_pull,1.48,5.0,5.0
sanchez2017chimpanzees,2,2015,9,19,lome,14,m,focal_participant_left,kara,10,f,focal_participant_right,chimpanzee,lome_kara,1,1,3,5.0,free_exterior_side,roped_interior_side,non_social,non_social,1.56,1.32,no_pull,no_pull,5.0,5.0
sanchez2017chimpanzees,2,2015,9,19,lome,14,m,focal_participant_left,kara,10,f,focal_participant_right,chimpanzee,lome_kara,1,1,4,5.0,roped_interior_side,free_exterior_side,social,social,0.2,2.8,no_pull,2.56,5.0,5.0
sanchez2017chimpanzees,2,2015,9,19,lome,14,m,focal_participant_left,kara,10,f,focal_participant_right,chimpanzee,lome_kara,1,1,5,5.0,free_exterior_side,roped_interior_side,no_choice,non_social,door_not_opened,1.6,no_pull,no_pull,0.0,5.0
sanchez2017chimpanzees,2,2015,9,19,lome,14,m,focal_participant_left,kara,10,f,focal_participant_right,chimpanzee,lome_kara,1,1,6,5.0,free_exterior_side,roped_interior_side,non_social,non_social,7.16,2.56,no_pull,no_pull,5.0,5.0
sanchez2017chimpanzees,2,2015,9,19,lome,14,m,focal_participant_left,kara,10,f,focal_participant_right,chimpanzee,lome_kara,1,1,7,5.0,roped_interior_side,free_exterior_side,social,non_social,3.04,1.2,3.92,no_pull,5.0,5.0
sanchez2017chimpanzees,2,2015,9,19,lome,14,m,focal_participant_left,kara,10,f,focal_participant_right,chimpanzee,lome_kara,1,1,8,5.0,free_exterior_side,roped_interior_side,non_social,non_social,9.16,2.04,no_pull,no_pull,5.0,5.0
sanchez2017chimpanzees,2,2015,9,20,kara,10,f,focal_participant_left,lome,14,m,focal_participant_right,chimpanzee,kara_lome,1,2,1,5.0,roped_interior_side,free_exterior_side,social,non_social,2.36,0.88,0.88,no_pull,5.0,5.0
sanchez2017chimpanzees,2,2015,9,20,kara,10,f,focal_participant_left,lome,14,m,focal_participant_right,chimpanzee,kara_lome,1,2,2,5.0,free_exterior_side,roped_interior_side,non_social,non_social,0.92,2.24,no_pull,no_pull,5.0,5.0
sanchez2017chimpanzees,2,2015,9,20,kara,10,f,focal_participant_left,lome,14,m,focal_participant_right,chimpanzee,kara_lome,1,2,3,5.0,roped_interior_side,free_exterior_side,social,non_social,0.92,3.52,6.8,no_pull,5.0,5.0
sanchez2017chimpanzees,2,2015,9,20,kara,10,f,focal_participant_left,lome,14,m,focal_participant_right,chimpanzee,kara_lome,1,2,4,5.0,roped_interior_side,free_exterior_side,social,non_social,0.8,1.68,1.08,no_pull,5.0,5.0
sanchez2017chimpanzees,2,2015,9,20,kara,10,f,focal_participant_left,lome,14,m,focal_participant_right,chimpanzee,kara_lome,1,2,5,5.0,free_exterior_side,roped_interior_side,non_social,non_social,0.2,1.24,no_pull,no_pull,5.0,5.0
sanchez2017chimpanzees,2,2015,9,20,kara,10,f,focal_participant_left,lome,14,m,focal_participant_right,chimpanzee,kara_lome,1,2,6,5.0,free_exterior_side,roped_interior_side,non_social,non_social,0.72,1.96,no_pull,no_pull,5.0,5.0
sanchez2017chimpanzees,2,2015,9,20,kara,10,f,focal_participant_left,lome,14,m,focal_participant_right,chimpanzee,kara_lome,1,2,7,5.0,roped_interior_side,free_exterior_side,social,social,0.52,0.96,1.16,no_pull,5.0,1.0
sanchez2017chimpanzees,2,2015,9,20,kara,10,f,focal_participant_left,lome,14,m,focal_participant_right,chimpanzee,kara_lome,1,2,8,5.0,free_exterior_side,roped_interior_side,non_social,non_social,0.88,1.16,no_pull,no_pull,5.0,5.0
sanchez2017chimpanzees,2,2015,9,21,lome,14,m,focal_participant_left,kara,10,f,focal_participant_right,chimpanzee,lome_kara,1,3,1,0.0,free_exterior_side,roped_interior_side,social,social,5.84,0.48,no_pull,2.52,5.0,1.0
sanchez2017chimpanzees,2,2015,9,21,lome,14,m,focal_participant_left,kara,10,f,focal_participant_right,chimpanzee,lome_kara,1,3,2,0.0,roped_interior_side,free_exterior_side,social,social,0.44,0.56,1.12,no_pull,5.0,1.0
sanchez2017chimpanzees,2,2015,9,21,lome,14,m,focal_participant_left,kara,10,f,focal_participant_right,chimpanzee,lome_kara,1,3,3,0.0,free_exterior_side,roped_interior_side,social,social,7.24,1.08,no_pull,3.44,5.0,1.0
sanchez2017chimpanzees,2,2015,9,21,lome,14,m,focal_participant_left,kara,10,f,focal_participant_right,chimpanzee,lome_kara,1,3,4,0.0,free_exterior_side,roped_interior_side,social,social,8.4,1.32,no_pull,4.24,5.0,1.0
sanchez2017chimpanzees,2,2015,9,21,lome,14,m,focal_participant_left,kara,10,f,focal_participant_right,chimpanzee,lome_kara,1,3,5,0.0,free_exterior_side,roped_interior_side,no_choice,social,door_not_opened,0.32,no_pull,no_pull,0.0,0.0
sanchez2017chimpanzees,2,2015,9,21,lome,14,m,focal_participant_left,kara,10,f,focal_participant_right,chimpanzee,lome_kara,1,3,6,0.0,roped_interior_side,free_exterior_side,social,social,4.8,0.52,no_pull,1.28,1.0,5.0
sanchez2017chimpanzees,2,2015,9,21,lome,14,m,focal_participant_left,kara,10,f,focal_participant_right,chimpanzee,lome_kara,1,3,7,0.0,roped_interior_side,free_exterior_side,social,social,0.52,0.48,0.84,1.24,5.0,1.0
sanchez2017chimpanzees,2,2015,9,21,lome,14,m,focal_participant_left,kara,10,f,focal_participant_right,chimpanzee,lome_kara,1,3,8,0.0,roped_interior_side,free_exterior_side,social,social,0.56,0.44,0.88,1.16,0.0,0.0
sanchez2017chimpanzees,2,2015,9,23,kara,10,f,focal_participant_left,lome,14,m,focal_participant_right,chimpanzee,kara_lome,1,4,1,1.0,roped_interior_side,free_exterior_side,social,social,1.04,0.64,0.56,1.36,1.0,5.0
sanchez2017chimpanzees,2,2015,9,23,kara,10,f,focal_participant_left,lome,14,m,focal_participant_right,chimpanzee,kara_lome,1,4,2,1.0,roped_interior_side,free_exterior_side,social,social,0.88,0.24,no_pull,2.44,1.0,5.0
sanchez2017chimpanzees,2,2015,9,23,kara,10,f,focal_participant_left,lome,14,m,focal_participant_right,chimpanzee,kara_lome,1,4,3,1.0,free_exterior_side,roped_interior_side,social,non_social,2.64,7.6,2.28,no_pull,1.0,1.0
sanchez2017chimpanzees,2,2015,9,23,kara,10,f,focal_participant_left,lome,14,m,focal_participant_right,chimpanzee,kara_lome,1,4,4,1.0,free_exterior_side,roped_interior_side,social,social,0.8,6.76,1.08,no_pull,1.0,5.0
sanchez2017chimpanzees,2,2015,9,23,kara,10,f,focal_participant_left,lome,14,m,focal_participant_right,chimpanzee,kara_lome,1,4,5,1.0,roped_interior_side,free_exterior_side,non_social,social,5,0.52,no_pull,1.4,1.0,5.0
sanchez2017chimpanzees,2,2015,9,23,kara,10,f,focal_participant_left,lome,14,m,focal_participant_right,chimpanzee,kara_lome,1,4,6,1.0,free_exterior_side,roped_interior_side,social,no_choice,1.2,door_not_opened,no_pull,no_pull,0.0,0.0
sanchez2017chimpanzees,2,2015,9,23,kara,10,f,focal_participant_left,lome,14,m,focal_participant_right,chimpanzee,kara_lome,1,4,7,1.0,free_exterior_side,roped_interior_side,social,no_choice,1.2,door_not_opened,no_pull,no_pull,0.0,0.0
sanchez2017chimpanzees,2,2015,9,23,kara,10,f,focal_participant_left,lome,14,m,focal_participant_right,chimpanzee,kara_lome,1,4,8,1.0,roped_interior_side,free_exterior_side,social,social,0.8,0.16,0.6,no_pull,5.0,1.0
sanchez2017chimpanzees,2,2015,10,2,lome,14,m,focal_participant_left,kara,10,f,focal_participant_right,chimpanzee,lome_kara,1,5,1,0.0,roped_interior_side,free_exterior_side,social,social,0.32,0.36,no_pull,0.72,1.0,5.0
sanchez2017chimpanzees,2,2015,10,2,lome,14,m,focal_participant_left,kara,10,f,focal_participant_right,chimpanzee,lome_kara,1,5,2,0.0,free_exterior_side,roped_interior_side,no_choice,social,door_not_opened,door_not_opened,no_pull,no_pull,0.0,0.0
sanchez2017chimpanzees,2,2015,10,2,lome,14,m,focal_participant_left,kara,10,f,focal_participant_right,chimpanzee,lome_kara,1,5,3,0.0,roped_interior_side,free_exterior_side,social,social,0.16,0.36,2.2,no_pull,5.0,1.0
sanchez2017chimpanzees,2,2015,10,2,lome,14,m,focal_participant_left,kara,10,f,focal_participant_right,chimpanzee,lome_kara,1,5,4,0.0,roped_interior_side,free_exterior_side,social,social,0.2,0.12,0.88,0.88,1.0,5.0
sanchez2017chimpanzees,2,2015,10,2,lome,14,m,focal_participant_left,kara,10,f,focal_participant_right,chimpanzee,lome_kara,1,5,5,0.0,roped_interior_side,free_exterior_side,social,social,0.16,0.16,1.12,no_pull,5.0,1.0
sanchez2017chimpanzees,2,2015,10,2,lome,14,m,focal_participant_left,kara,10,f,focal_participant_right,chimpanzee,lome_kara,1,5,6,0.0,free_exterior_side,roped_interior_side,social,social,5,0.16,no_pull,2.44,5.0,1.0
sanchez2017chimpanzees,2,2015,10,2,lome,14,m,focal_participant_left,kara,10,f,focal_participant_right,chimpanzee,lome_kara,1,5,7,0.0,free_exterior_side,roped_interior_side,social,social,4.24,1.12,no_pull,0.84,5.0,1.0
sanchez2017chimpanzees,2,2015,10,2,lome,14,m,focal_participant_left,kara,10,f,focal_participant_right,chimpanzee,lome_kara,1,5,8,0.0,free_exterior_side,roped_interior_side,social,social,3.72,0.2,no_pull,1.12,5.0,1.0
sanchez2017chimpanzees,2,2015,10,3,kara,10,f,focal_participant_left,lome,14,m,focal_participant_right,chimpanzee,kara_lome,1,6,1,3.0,free_exterior_side,roped_interior_side,non_social,non_social,0.52,1.16,no_pull,no_pull,3.0,3.0
sanchez2017chimpanzees,2,2015,10,3,kara,10,f,focal_participant_left,lome,14,m,focal_participant_right,chimpanzee,kara_lome,1,6,2,3.0,roped_interior_side,free_exterior_side,social,non_social,0.16,2.32,1.16,no_pull,5.0,3.0
sanchez2017chimpanzees,2,2015,10,3,kara,10,f,focal_participant_left,lome,14,m,focal_participant_right,chimpanzee,kara_lome,1,6,3,3.0,roped_interior_side,free_exterior_side,social,non_social,0.72,0.96,0.8,no_pull,5.0,3.0
sanchez2017chimpanzees,2,2015,10,3,kara,10,f,focal_participant_left,lome,14,m,focal_participant_right,chimpanzee,kara_lome,1,6,4,3.0,free_exterior_side,roped_interior_side,non_social,non_social,0.72,3.4,no_pull,no_pull,3.0,3.0
sanchez2017chimpanzees,2,2015,10,3,kara,10,f,focal_participant_left,lome,14,m,focal_participant_right,chimpanzee,kara_lome,1,6,5,3.0,free_exterior_side,roped_interior_side,non_social,non_social,1.24,7.76,no_pull,no_pull,3.0,3.0
sanchez2017chimpanzees,2,2015,10,3,kara,10,f,focal_participant_left,lome,14,m,focal_participant_right,chimpanzee,kara_lome,1,6,6,3.0,free_exterior_side,roped_interior_side,non_social,non_social,0.88,1.56,no_pull,no_pull,3.0,3.0
sanchez2017chimpanzees,2,2015,10,3,kara,10,f,focal_participant_left,lome,14,m,focal_participant_right,chimpanzee,kara_lome,1,6,7,3.0,roped_interior_side,free_exterior_side,social,non_social,0.16,0.4,1.32,no_pull,5.0,3.0
sanchez2017chimpanzees,2,2015,10,3,kara,10,f,focal_participant_left,lome,14,m,focal_participant_right,chimpanzee,kara_lome,1,6,8,3.0,roped_interior_side,free_exterior_side,social,non_social,0.28,3.88,1.16,no_pull,5.0,3.0
sanchez2017chimpanzees,2,2015,10,4,lome,14,m,focal_participant_left,kara,10,f,focal_participant_right,chimpanzee,lome_kara,1,7,1,3.0,free_exterior_side,roped_interior_side,non_social,non_social,6.32,1.72,no_pull,no_pull,3.0,3.0
sanchez2017chimpanzees,2,2015,10,4,lome,14,m,focal_participant_left,kara,10,f,focal_participant_right,chimpanzee,lome_kara,1,7,2,3.0,free_exterior_side,roped_interior_side,non_social,non_social,2.2,0.88,no_pull,no_pull,3.0,3.0
sanchez2017chimpanzees,2,2015,10,4,lome,14,m,focal_participant_left,kara,10,f,focal_participant_right,chimpanzee,lome_kara,1,7,3,3.0,free_exterior_side,roped_interior_side,non_social,non_social,6.12,0.8,no_pull,no_pull,3.0,3.0
sanchez2017chimpanzees,2,2015,10,4,lome,14,m,focal_participant_left,kara,10,f,focal_participant_right,chimpanzee,lome_kara,1,7,4,3.0,roped_interior_side,free_exterior_side,non_social,social,3.16,0.28,no_pull,0.88,3.0,5.0
sanchez2017chimpanzees,2,2015,10,4,lome,14,m,focal_participant_left,kara,10,f,focal_participant_right,chimpanzee,lome_kara,1,7,5,3.0,free_exterior_side,roped_interior_side,non_social,non_social,4.6,1.16,no_pull,no_pull,3.0,3.0
sanchez2017chimpanzees,2,2015,10,4,lome,14,m,focal_participant_left,kara,10,f,focal_participant_right,chimpanzee,lome_kara,1,7,6,3.0,roped_interior_side,free_exterior_side,social,social,0.36,0.2,1,0.96,5.0,1.0
sanchez2017chimpanzees,2,2015,10,4,lome,14,m,focal_participant_left,kara,10,f,focal_participant_right,chimpanzee,lome_kara,1,7,7,3.0,roped_interior_side,free_exterior_side,non_social,non_social,2.08,1.44,no_pull,no_pull,3.0,3.0
sanchez2017chimpanzees,2,2015,10,4,lome,14,m,focal_participant_left,kara,10,f,focal_participant_right,chimpanzee,lome_kara,1,7,8,3.0,roped_interior_side,free_exterior_side,social,non_social,0.76,3.04,1.36,no_pull,5.0,3.0
sanchez2017chimpanzees,2,2015,10,5,kara,10,f,focal_participant_left,lome,14,m,focal_participant_right,chimpanzee,kara_lome,1,8,1,1.0,roped_interior_side,free_exterior_side,non_social,social,3.48,0.16,no_pull,1.56,1.0,5.0
sanchez2017chimpanzees,2,2015,10,5,kara,10,f,focal_participant_left,lome,14,m,focal_participant_right,chimpanzee,kara_lome,1,8,2,1.0,free_exterior_side,roped_interior_side,social,social,0.68,4.44,2.32,no_pull,1.0,5.0
sanchez2017chimpanzees,2,2015,10,5,kara,10,f,focal_participant_left,lome,14,m,focal_participant_right,chimpanzee,kara_lome,1,8,3,1.0,roped_interior_side,free_exterior_side,social,social,0.48,0.44,1,0.76,1.0,5.0
sanchez2017chimpanzees,2,2015,10,5,kara,10,f,focal_participant_left,lome,14,m,focal_participant_right,chimpanzee,kara_lome,1,8,4,1.0,roped_interior_side,free_exterior_side,social,social,0.16,0.52,0.96,0.76,1.0,5.0
sanchez2017chimpanzees,2,2015,10,5,kara,10,f,focal_participant_left,lome,14,m,focal_participant_right,chimpanzee,kara_lome,1,8,5,1.0,free_exterior_side,roped_interior_side,social,non_social,0.6,9.72,no_pull,no_pull,0.0,1.0
sanchez2017chimpanzees,2,2015,10,5,kara,10,f,focal_participant_left,lome,14,m,focal_participant_right,chimpanzee,kara_lome,1,8,6,1.0,roped_interior_side,free_exterior_side,social,social,0.16,0.16,0.72,0.92,1.0,5.0
sanchez2017chimpanzees,2,2015,10,5,kara,10,f,focal_participant_left,lome,14,m,focal_participant_right,chimpanzee,kara_lome,1,8,7,1.0,free_exterior_side,roped_interior_side,social,social,0.76,7.6,3.76,no_pull,1.0,5.0
sanchez2017chimpanzees,2,2015,10,5,kara,10,f,focal_participant_left,lome,14,m,focal_participant_right,chimpanzee,kara_lome,1,8,8,1.0,free_exterior_side,roped_interior_side,social,social,1.2,7.96,2.84,no_pull,1.0,5.0
sanchez2017chimpanzees,2,2015,11,6,lome,14,m,focal_participant_left,kofi,10,m,focal_participant_right,chimpanzee,lome_kofi,2,1,1,3.0,roped_interior_side,free_exterior_side,non_social,social,1.68,1,no_pull,2.16,3.0,0.0
sanchez2017chimpanzees,2,2015,11,6,lome,14,m,focal_participant_left,kofi,10,m,focal_participant_right,chimpanzee,lome_kofi,2,1,2,3.0,free_exterior_side,roped_interior_side,non_social,non_social,0.76,0.92,no_pull,no_pull,3.0,3.0
sanchez2017chimpanzees,2,2015,11,6,lome,14,m,focal_participant_left,kofi,10,m,focal_participant_right,chimpanzee,lome_kofi,2,1,3,3.0,roped_interior_side,free_exterior_side,non_social,social,0.36,0.28,no_pull,0.92,3.0,5.0
sanchez2017chimpanzees,2,2015,11,6,lome,14,m,focal_participant_left,kofi,10,m,focal_participant_right,chimpanzee,lome_kofi,2,1,4,3.0,free_exterior_side,roped_interior_side,non_social,non_social,0.48,0.68,no_pull,no_pull,3.0,3.0
sanchez2017chimpanzees,2,2015,11,6,lome,14,m,focal_participant_left,kofi,10,m,focal_participant_right,chimpanzee,lome_kofi,2,1,5,3.0,free_exterior_side,roped_interior_side,non_social,non_social,0.44,0.92,no_pull,no_pull,3.0,3.0
sanchez2017chimpanzees,2,2015,11,6,lome,14,m,focal_participant_left,kofi,10,m,focal_participant_right,chimpanzee,lome_kofi,2,1,6,3.0,free_exterior_side,roped_interior_side,non_social,non_social,0.8,0.76,no_pull,no_pull,3.0,3.0
sanchez2017chimpanzees,2,2015,11,6,lome,14,m,focal_participant_left,kofi,10,m,focal_participant_right,chimpanzee,lome_kofi,2,1,7,3.0,roped_interior_side,free_exterior_side,non_social,social,0.28,0.16,no_pull,1,3.0,5.0
sanchez2017chimpanzees,2,2015,11,6,lome,14,m,focal_participant_left,kofi,10,m,focal_participant_right,chimpanzee,lome_kofi,2,1,8,3.0,roped_interior_side,free_exterior_side,non_social,social,0.96,0.08,no_pull,1.84,3.0,5.0
sanchez2017chimpanzees,2,2015,11,7,kofi,10,m,focal_participant_left,lome,14,m,focal_participant_right,chimpanzee,kofi_lome,2,2,1,5.0,free_exterior_side,roped_interior_side,non_social,non_social,1.28,0.88,no_pull,no_pull,5.0,5.0
sanchez2017chimpanzees,2,2015,11,7,kofi,10,m,focal_participant_left,lome,14,m,focal_participant_right,chimpanzee,kofi_lome,2,2,2,5.0,roped_interior_side,free_exterior_side,social,non_social,0.84,0.48,3.76,no_pull,5.0,5.0
sanchez2017chimpanzees,2,2015,11,7,kofi,10,m,focal_participant_left,lome,14,m,focal_participant_right,chimpanzee,kofi_lome,2,2,3,5.0,free_exterior_side,roped_interior_side,non_social,non_social,2.16,0.88,no_pull,no_pull,5.0,5.0
sanchez2017chimpanzees,2,2015,11,7,kofi,10,m,focal_participant_left,lome,14,m,focal_participant_right,chimpanzee,kofi_lome,2,2,4,5.0,free_exterior_side,roped_interior_side,non_social,non_social,1.48,0.64,no_pull,no_pull,5.0,5.0
sanchez2017chimpanzees,2,2015,11,7,kofi,10,m,focal_participant_left,lome,14,m,focal_participant_right,chimpanzee,kofi_lome,2,2,5,5.0,free_exterior_side,roped_interior_side,non_social,non_social,2.12,0.72,no_pull,no_pull,5.0,5.0
sanchez2017chimpanzees,2,2015,11,7,kofi,10,m,focal_participant_left,lome,14,m,focal_participant_right,chimpanzee,kofi_lome,2,2,6,5.0,roped_interior_side,free_exterior_side,social,non_social,1.48,0.56,1.24,no_pull,5.0,5.0
sanchez2017chimpanzees,2,2015,11,7,kofi,10,m,focal_participant_left,lome,14,m,focal_participant_right,chimpanzee,kofi_lome,2,2,7,5.0,roped_interior_side,free_exterior_side,social,non_social,0.68,0.12,1.44,no_pull,5.0,5.0
sanchez2017chimpanzees,2,2015,11,7,kofi,10,m,focal_participant_left,lome,14,m,focal_participant_right,chimpanzee,kofi_lome,2,2,8,5.0,roped_interior_side,free_exterior_side,social,non_social,0.48,0.76,3.72,no_pull,5.0,5.0
sanchez2017chimpanzees,2,2015,11,11,lome,14,m,focal_participant_left,kofi,10,m,focal_participant_right,chimpanzee,lome_kofi,2,3,1,5.0,roped_interior_side,free_exterior_side,non_social,social,0.8,1.32,no_pull,4.44,5.0,5.0
sanchez2017chimpanzees,2,2015,11,11,lome,14,m,focal_participant_left,kofi,10,m,focal_participant_right,chimpanzee,lome_kofi,2,3,2,5.0,free_exterior_side,roped_interior_side,non_social,non_social,8.08,0.8,no_pull,no_pull,5.0,5.0
sanchez2017chimpanzees,2,2015,11,11,lome,14,m,focal_participant_left,kofi,10,m,focal_participant_right,chimpanzee,lome_kofi,2,3,3,5.0,roped_interior_side,free_exterior_side,non_social,social,1.04,0.88,no_pull,0.96,5.0,5.0
sanchez2017chimpanzees,2,2015,11,11,lome,14,m,focal_participant_left,kofi,10,m,focal_participant_right,chimpanzee,lome_kofi,2,3,4,5.0,free_exterior_side,roped_interior_side,non_social,non_social,0.92,0.96,no_pull,no_pull,5.0,5.0
sanchez2017chimpanzees,2,2015,11,11,lome,14,m,focal_participant_left,kofi,10,m,focal_participant_right,chimpanzee,lome_kofi,2,3,5,5.0,free_exterior_side,roped_interior_side,non_social,non_social,0.96,0.84,no_pull,no_pull,5.0,5.0
sanchez2017chimpanzees,2,2015,11,11,lome,14,m,focal_participant_left,kofi,10,m,focal_participant_right,chimpanzee,lome_kofi,2,3,6,5.0,free_exterior_side,roped_interior_side,non_social,non_social,0.72,0.2,no_pull,no_pull,5.0,5.0
sanchez2017chimpanzees,2,2015,11,11,lome,14,m,focal_participant_left,kofi,10,m,focal_participant_right,chimpanzee,lome_kofi,2,3,7,5.0,roped_interior_side,free_exterior_side,non_social,social,0.92,0.24,no_pull,4.72,5.0,5.0
sanchez2017chimpanzees,2,2015,11,11,lome,14,m,focal_participant_left,kofi,10,m,focal_participant_right,chimpanzee,lome_kofi,2,3,8,5.0,roped_interior_side,free_exterior_side,non_social,social,0.84,0.2,no_pull,0.92,5.0,5.0
sanchez2017chimpanzees,2,2015,11,12,kofi,10,m,focal_participant_left,lome,14,m,focal_participant_right,chimpanzee,kofi_lome,2,4,1,0.0,roped_interior_side,free_exterior_side,social,social,0.16,0.48,1.4,1.32,1.0,5.0
sanchez2017chimpanzees,2,2015,11,12,kofi,10,m,focal_participant_left,lome,14,m,focal_participant_right,chimpanzee,kofi_lome,2,4,2,0.0,roped_interior_side,free_exterior_side,social,social,0.4,3.08,0.96,no_pull,5.0,1.0
sanchez2017chimpanzees,2,2015,11,12,kofi,10,m,focal_participant_left,lome,14,m,focal_participant_right,chimpanzee,kofi_lome,2,4,3,0.0,free_exterior_side,roped_interior_side,social,social,0.72,4.56,1.96,no_pull,1.0,5.0
sanchez2017chimpanzees,2,2015,11,12,kofi,10,m,focal_participant_left,lome,14,m,focal_participant_right,chimpanzee,kofi_lome,2,4,4,0.0,roped_interior_side,free_exterior_side,social,social,1.28,0.28,no_pull,1.2,1.0,5.0
sanchez2017chimpanzees,2,2015,11,12,kofi,10,m,focal_participant_left,lome,14,m,focal_participant_right,chimpanzee,kofi_lome,2,4,5,0.0,free_exterior_side,roped_interior_side,social,social,0.88,3.52,1.08,no_pull,1.0,5.0
sanchez2017chimpanzees,2,2015,11,12,kofi,10,m,focal_participant_left,lome,14,m,focal_participant_right,chimpanzee,kofi_lome,2,4,6,0.0,free_exterior_side,roped_interior_side,social,social,0.72,8.28,5.72,no_pull,1.0,5.0
sanchez2017chimpanzees,2,2015,11,12,kofi,10,m,focal_participant_left,lome,14,m,focal_participant_right,chimpanzee,kofi_lome,2,4,7,0.0,roped_interior_side,free_exterior_side,social,social,0.6,6.08,2.96,no_pull,5.0,1.0
sanchez2017chimpanzees,2,2015,11,12,kofi,10,m,focal_participant_left,lome,14,m,focal_participant_right,chimpanzee,kofi_lome,2,4,8,0.0,free_exterior_side,roped_interior_side,social,social,0.64,6.24,4.4,no_pull,1.0,5.0
sanchez2017chimpanzees,2,2015,11,13,lome,14,m,focal_participant_left,kofi,10,m,focal_participant_right,chimpanzee,lome_kofi,2,5,1,3.0,free_exterior_side,roped_interior_side,non_social,non_social,0.64,1.32,no_pull,no_pull,3.0,3.0
sanchez2017chimpanzees,2,2015,11,13,lome,14,m,focal_participant_left,kofi,10,m,focal_participant_right,chimpanzee,lome_kofi,2,5,2,3.0,free_exterior_side,roped_interior_side,non_social,non_social,1.12,0.52,no_pull,no_pull,3.0,3.0
sanchez2017chimpanzees,2,2015,11,13,lome,14,m,focal_participant_left,kofi,10,m,focal_participant_right,chimpanzee,lome_kofi,2,5,3,3.0,roped_interior_side,free_exterior_side,non_social,social,0.72,0.56,no_pull,3.68,3.0,5.0
sanchez2017chimpanzees,2,2015,11,13,lome,14,m,focal_participant_left,kofi,10,m,focal_participant_right,chimpanzee,lome_kofi,2,5,4,3.0,roped_interior_side,free_exterior_side,non_social,social,0.96,0.76,no_pull,2.32,3.0,5.0
sanchez2017chimpanzees,2,2015,11,13,lome,14,m,focal_participant_left,kofi,10,m,focal_participant_right,chimpanzee,lome_kofi,2,5,5,3.0,roped_interior_side,free_exterior_side,non_social,social,0.88,0.16,no_pull,2.84,3.0,5.0
sanchez2017chimpanzees,2,2015,11,13,lome,14,m,focal_participant_left,kofi,10,m,focal_participant_right,chimpanzee,lome_kofi,2,5,6,3.0,roped_interior_side,free_exterior_side,non_social,social,1.64,0.8,no_pull,no_pull,3.0,0.0
sanchez2017chimpanzees,2,2015,11,13,lome,14,m,focal_participant_left,kofi,10,m,focal_participant_right,chimpanzee,lome_kofi,2,5,7,3.0,free_exterior_side,roped_interior_side,non_social,non_social,1.04,1.8,no_pull,no_pull,3.0,3.0
sanchez2017chimpanzees,2,2015,11,13,lome,14,m,focal_participant_left,kofi,10,m,focal_participant_right,chimpanzee,lome_kofi,2,5,8,3.0,free_exterior_side,roped_interior_side,non_social,non_social,0.88,1.52,no_pull,no_pull,3.0,3.0
sanchez2017chimpanzees,2,2015,11,21,kofi,10,m,focal_participant_left,lome,14,m,focal_participant_right,chimpanzee,kofi_lome,2,6,1,1.0,free_exterior_side,roped_interior_side,non_social,social,0.12,2.4,no_pull,no_pull,1.0,0.0
sanchez2017chimpanzees,2,2015,11,21,kofi,10,m,focal_participant_left,lome,14,m,focal_participant_right,chimpanzee,kofi_lome,2,6,2,1.0,free_exterior_side,roped_interior_side,social,non_social,0.76,0.52,3.6,no_pull,1.0,1.0
sanchez2017chimpanzees,2,2015,11,21,kofi,10,m,focal_participant_left,lome,14,m,focal_participant_right,chimpanzee,kofi_lome,2,6,3,1.0,roped_interior_side,free_exterior_side,social,non_social,0.36,1.08,10.24,no_pull,5.0,1.0
sanchez2017chimpanzees,2,2015,11,21,kofi,10,m,focal_participant_left,lome,14,m,focal_participant_right,chimpanzee,kofi_lome,2,6,4,1.0,roped_interior_side,free_exterior_side,social,social,0.2,0.48,2.76,no_pull,5.0,1.0
sanchez2017chimpanzees,2,2015,11,21,kofi,10,m,focal_participant_left,lome,14,m,focal_participant_right,chimpanzee,kofi_lome,2,6,5,1.0,free_exterior_side,roped_interior_side,non_social,non_social,0.28,1.36,no_pull,no_pull,1.0,1.0
sanchez2017chimpanzees,2,2015,11,21,kofi,10,m,focal_participant_left,lome,14,m,focal_participant_right,chimpanzee,kofi_lome,2,6,6,1.0,roped_interior_side,free_exterior_side,social,non_social,0.12,0.64,3.84,no_pull,0.0,1.0
sanchez2017chimpanzees,2,2015,11,21,kofi,10,m,focal_participant_left,lome,14,m,focal_participant_right,chimpanzee,kofi_lome,2,6,7,1.0,free_exterior_side,roped_interior_side,non_social,social,0.32,1.04,no_pull,4.64,1.0,1.0
sanchez2017chimpanzees,2,2015,11,21,kofi,10,m,focal_participant_left,lome,14,m,focal_participant_right,chimpanzee,kofi_lome,2,6,8,1.0,roped_interior_side,free_exterior_side,social,social,0.32,0.8,3.04,no_pull,5.0,1.0
sanchez2017chimpanzees,2,2015,11,22,lome,14,m,focal_participant_left,kofi,10,m,focal_participant_right,chimpanzee,lome_kofi,2,7,1,1.0,free_exterior_side,roped_interior_side,non_social,non_social,0.8,0.64,no_pull,no_pull,1.0,1.0
sanchez2017chimpanzees,2,2015,11,22,lome,14,m,focal_participant_left,kofi,10,m,focal_participant_right,chimpanzee,lome_kofi,2,7,2,1.0,roped_interior_side,free_exterior_side,social,social,1.56,0.16,no_pull,2.56,1.0,5.0
sanchez2017chimpanzees,2,2015,11,22,lome,14,m,focal_participant_left,kofi,10,m,focal_participant_right,chimpanzee,lome_kofi,2,7,3,1.0,free_exterior_side,roped_interior_side,non_social,non_social,0.8,1.96,no_pull,no_pull,1.0,1.0
sanchez2017chimpanzees,2,2015,11,22,lome,14,m,focal_participant_left,kofi,10,m,focal_participant_right,chimpanzee,lome_kofi,2,7,4,1.0,free_exterior_side,roped_interior_side,non_social,non_social,0.8,0.64,no_pull,no_pull,1.0,1.0
sanchez2017chimpanzees,2,2015,11,22,lome,14,m,focal_participant_left,kofi,10,m,focal_participant_right,chimpanzee,lome_kofi,2,7,5,1.0,free_exterior_side,roped_interior_side,non_social,social,0.72,0.44,no_pull,2.04,1.0,1.0
sanchez2017chimpanzees,2,2015,11,22,lome,14,m,focal_participant_left,kofi,10,m,focal_participant_right,chimpanzee,lome_kofi,2,7,6,1.0,roped_interior_side,free_exterior_side,social,social,1.8,0.6,no_pull,1.6,1.0,5.0
sanchez2017chimpanzees,2,2015,11,22,lome,14,m,focal_participant_left,kofi,10,m,focal_participant_right,chimpanzee,lome_kofi,2,7,7,1.0,roped_interior_side,free_exterior_side,social,social,0.12,0.24,1.4,no_pull,5.0,1.0
sanchez2017chimpanzees,2,2015,11,22,lome,14,m,focal_participant_left,kofi,10,m,focal_participant_right,chimpanzee,lome_kofi,2,7,8,1.0,roped_interior_side,free_exterior_side,social,social,4.28,0.68,no_pull,2.64,1.0,5.0
sanchez2017chimpanzees,2,2015,11,28,kofi,10,m,focal_participant_left,lome,14,m,focal_participant_right,chimpanzee,kofi_lome,2,8,1,0.0,roped_interior_side,free_exterior_side,social,social,0.96,1.56,1.16,no_pull,5.0,1.0
sanchez2017chimpanzees,2,2015,11,28,kofi,10,m,focal_participant_left,lome,14,m,focal_participant_right,chimpanzee,kofi_lome,2,8,2,0.0,roped_interior_side,free_exterior_side,social,social,0.16,0.32,1.88,no_pull,5.0,1.0
sanchez2017chimpanzees,2,2015,11,28,kofi,10,m,focal_participant_left,lome,14,m,focal_participant_right,chimpanzee,kofi_lome,2,8,3,0.0,free_exterior_side,roped_interior_side,social,social,0.64,0.6,3.48,3.32,1.0,5.0
sanchez2017chimpanzees,2,2015,11,28,kofi,10,m,focal_participant_left,lome,14,m,focal_participant_right,chimpanzee,kofi_lome,2,8,4,0.0,roped_interior_side,free_exterior_side,social,social,0.4,1.08,2,no_pull,5.0,1.0
sanchez2017chimpanzees,2,2015,11,28,kofi,10,m,focal_participant_left,lome,14,m,focal_participant_right,chimpanzee,kofi_lome,2,8,5,0.0,free_exterior_side,roped_interior_side,non_social,social,2.56,0.68,no_pull,no_pull,0.0,0.0
sanchez2017chimpanzees,2,2015,11,28,kofi,10,m,focal_participant_left,lome,14,m,focal_participant_right,chimpanzee,kofi_lome,2,8,6,0.0,free_exterior_side,roped_interior_side,social,social,0.72,0.96,no_pull,no_pull,0.0,0.0
sanchez2017chimpanzees,2,2015,11,28,kofi,10,m,focal_participant_left,lome,14,m,focal_participant_right,chimpanzee,kofi_lome,2,8,7,0.0,roped_interior_side,free_exterior_side,social,social,0.16,0.56,1.04,no_pull,5.0,1.0
sanchez2017chimpanzees,2,2015,11,28,kofi,10,m,focal_participant_left,lome,14,m,focal_participant_right,chimpanzee,kofi_lome,2,8,8,0.0,free_exterior_side,roped_interior_side,social,no_choice,0.88,door_not_opened,no_pull,no_pull,0.0,0.0
sanchez2017chimpanzees,2,2015,12,9,lobo,11,m,focal_participant_left,bangolo,6,m,focal_participant_right,chimpanzee,lobo_bangolo,3,1,1,5.0,free_exterior_side,roped_interior_side,non_social,non_social,0.72,0.6,no_pull,no_pull,5.0,5.0
sanchez2017chimpanzees,2,2015,12,9,lobo,11,m,focal_participant_left,bangolo,6,m,focal_participant_right,chimpanzee,lobo_bangolo,3,1,2,5.0,roped_interior_side,free_exterior_side,social,non_social,0.32,0.16,3.2,no_pull,5.0,5.0
sanchez2017chimpanzees,2,2015,12,9,lobo,11,m,focal_participant_left,bangolo,6,m,focal_participant_right,chimpanzee,lobo_bangolo,3,1,3,5.0,free_exterior_side,roped_interior_side,non_social,non_social,1.36,1.84,no_pull,no_pull,5.0,5.0
sanchez2017chimpanzees,2,2015,12,9,lobo,11,m,focal_participant_left,bangolo,6,m,focal_participant_right,chimpanzee,lobo_bangolo,3,1,4,5.0,free_exterior_side,roped_interior_side,non_social,non_social,0.84,0.76,no_pull,no_pull,5.0,5.0
sanchez2017chimpanzees,2,2015,12,9,lobo,11,m,focal_participant_left,bangolo,6,m,focal_participant_right,chimpanzee,lobo_bangolo,3,1,5,5.0,free_exterior_side,roped_interior_side,non_social,non_social,1.48,0.68,no_pull,no_pull,5.0,5.0
sanchez2017chimpanzees,2,2015,12,9,lobo,11,m,focal_participant_left,bangolo,6,m,focal_participant_right,chimpanzee,lobo_bangolo,3,1,6,5.0,roped_interior_side,free_exterior_side,social,non_social,0.28,0.16,5.04,no_pull,5.0,5.0
sanchez2017chimpanzees,2,2015,12,9,lobo,11,m,focal_participant_left,bangolo,6,m,focal_participant_right,chimpanzee,lobo_bangolo,3,1,7,5.0,roped_interior_side,free_exterior_side,social,non_social,0.48,0.12,1.64,no_pull,5.0,5.0
sanchez2017chimpanzees,2,2015,12,9,lobo,11,m,focal_participant_left,bangolo,6,m,focal_participant_right,chimpanzee,lobo_bangolo,3,1,8,5.0,roped_interior_side,free_exterior_side,social,social,0.28,1.76,1.76,no_pull,5.0,1.0
sanchez2017chimpanzees,2,2015,12,10,bangolo,6,m,focal_participant_left,lobo,11,m,focal_participant_right,chimpanzee,bangolo_lobo,3,2,1,3.0,roped_interior_side,free_exterior_side,non_social,social,1.4,0.12,no_pull,1.08,3.0,5.0
sanchez2017chimpanzees,2,2015,12,10,bangolo,6,m,focal_participant_left,lobo,11,m,focal_participant_right,chimpanzee,bangolo_lobo,3,2,2,3.0,roped_interior_side,free_exterior_side,social,social,0.12,0.88,1.16,no_pull,5.0,1.0
sanchez2017chimpanzees,2,2015,12,10,bangolo,6,m,focal_participant_left,lobo,11,m,focal_participant_right,chimpanzee,bangolo_lobo,3,2,3,3.0,free_exterior_side,roped_interior_side,non_social,non_social,0.44,0.76,no_pull,no_pull,3.0,3.0
sanchez2017chimpanzees,2,2015,12,10,bangolo,6,m,focal_participant_left,lobo,11,m,focal_participant_right,chimpanzee,bangolo_lobo,3,2,4,3.0,roped_interior_side,free_exterior_side,social,social,0.2,0.28,no_pull,0.68,1.0,5.0
sanchez2017chimpanzees,2,2015,12,10,bangolo,6,m,focal_participant_left,lobo,11,m,focal_participant_right,chimpanzee,bangolo_lobo,3,2,5,3.0,free_exterior_side,roped_interior_side,non_social,non_social,0.44,0.96,no_pull,no_pull,3.0,3.0
sanchez2017chimpanzees,2,2015,12,10,bangolo,6,m,focal_participant_left,lobo,11,m,focal_participant_right,chimpanzee,bangolo_lobo,3,2,6,3.0,free_exterior_side,roped_interior_side,non_social,non_social,0.6,0.68,no_pull,no_pull,3.0,3.0
sanchez2017chimpanzees,2,2015,12,10,bangolo,6,m,focal_participant_left,lobo,11,m,focal_participant_right,chimpanzee,bangolo_lobo,3,2,7,3.0,roped_interior_side,free_exterior_side,non_social,social,0.4,0.48,no_pull,0.72,3.0,5.0
sanchez2017chimpanzees,2,2015,12,10,bangolo,6,m,focal_participant_left,lobo,11,m,focal_participant_right,chimpanzee,bangolo_lobo,3,2,8,3.0,free_exterior_side,roped_interior_side,non_social,non_social,0.36,0.92,no_pull,no_pull,3.0,3.0
sanchez2017chimpanzees,2,2015,12,11,lobo,11,m,focal_participant_left,bangolo,6,m,focal_participant_right,chimpanzee,lobo_bangolo,3,3,1,0.0,free_exterior_side,roped_interior_side,social,social,2.88,0.76,2.32,no_pull,1.0,5.0
sanchez2017chimpanzees,2,2015,12,11,lobo,11,m,focal_participant_left,bangolo,6,m,focal_participant_right,chimpanzee,lobo_bangolo,3,3,2,0.0,free_exterior_side,roped_interior_side,social,social,1,4.44,1.92,no_pull,1.0,5.0
sanchez2017chimpanzees,2,2015,12,11,lobo,11,m,focal_participant_left,bangolo,6,m,focal_participant_right,chimpanzee,lobo_bangolo,3,3,3,0.0,roped_interior_side,free_exterior_side,social,social,0.16,0.24,1.32,no_pull,5.0,1.0
sanchez2017chimpanzees,2,2015,12,11,lobo,11,m,focal_participant_left,bangolo,6,m,focal_participant_right,chimpanzee,lobo_bangolo,3,3,4,0.0,roped_interior_side,free_exterior_side,social,social,0.52,0.2,0.88,no_pull,5.0,1.0
sanchez2017chimpanzees,2,2015,12,11,lobo,11,m,focal_participant_left,bangolo,6,m,focal_participant_right,chimpanzee,lobo_bangolo,3,3,5,0.0,free_exterior_side,roped_interior_side,social,social,0.32,4.96,2.72,no_pull,1.0,5.0
sanchez2017chimpanzees,2,2015,12,11,lobo,11,m,focal_participant_left,bangolo,6,m,focal_participant_right,chimpanzee,lobo_bangolo,3,3,6,0.0,roped_interior_side,free_exterior_side,social,social,0.48,0.08,0.68,no_pull,5.0,1.0
sanchez2017chimpanzees,2,2015,12,11,lobo,11,m,focal_participant_left,bangolo,6,m,focal_participant_right,chimpanzee,lobo_bangolo,3,3,7,0.0,free_exterior_side,roped_interior_side,social,social,0.28,3.92,2.12,no_pull,1.0,5.0
sanchez2017chimpanzees,2,2015,12,11,lobo,11,m,focal_participant_left,bangolo,6,m,focal_participant_right,chimpanzee,lobo_bangolo,3,3,8,0.0,roped_interior_side,free_exterior_side,social,social,0.36,0.36,1.32,1,0.0,0.0
sanchez2017chimpanzees,2,2015,12,13,bangolo,6,m,focal_participant_left,lobo,11,m,focal_participant_right,chimpanzee,bangolo_lobo,3,4,1,5.0,roped_interior_side,free_exterior_side,non_social,social,0.52,0.28,no_pull,1.04,5.0,5.0
sanchez2017chimpanzees,2,2015,12,13,bangolo,6,m,focal_participant_left,lobo,11,m,focal_participant_right,chimpanzee,bangolo_lobo,3,4,2,5.0,roped_interior_side,free_exterior_side,non_social,social,0.48,0.4,no_pull,6.04,5.0,5.0
sanchez2017chimpanzees,2,2015,12,13,bangolo,6,m,focal_participant_left,lobo,11,m,focal_participant_right,chimpanzee,bangolo_lobo,3,4,3,5.0,free_exterior_side,roped_interior_side,non_social,non_social,0.52,1.32,no_pull,no_pull,5.0,5.0
sanchez2017chimpanzees,2,2015,12,13,bangolo,6,m,focal_participant_left,lobo,11,m,focal_participant_right,chimpanzee,bangolo_lobo,3,4,4,5.0,free_exterior_side,roped_interior_side,non_social,non_social,0.12,0.92,no_pull,no_pull,5.0,5.0
sanchez2017chimpanzees,2,2015,12,13,bangolo,6,m,focal_participant_left,lobo,11,m,focal_participant_right,chimpanzee,bangolo_lobo,3,4,5,5.0,free_exterior_side,roped_interior_side,non_social,non_social,1.64,0.8,no_pull,no_pull,5.0,5.0
sanchez2017chimpanzees,2,2015,12,13,bangolo,6,m,focal_participant_left,lobo,11,m,focal_participant_right,chimpanzee,bangolo_lobo,3,4,6,5.0,roped_interior_side,free_exterior_side,non_social,social,0.48,0.76,no_pull,1.84,5.0,5.0
sanchez2017chimpanzees,2,2015,12,13,bangolo,6,m,focal_participant_left,lobo,11,m,focal_participant_right,chimpanzee,bangolo_lobo,3,4,7,5.0,free_exterior_side,roped_interior_side,non_social,non_social,0.68,1.16,no_pull,no_pull,5.0,5.0
sanchez2017chimpanzees,2,2015,12,13,bangolo,6,m,focal_participant_left,lobo,11,m,focal_participant_right,chimpanzee,bangolo_lobo,3,4,8,5.0,roped_interior_side,free_exterior_side,non_social,social,0.16,0.56,no_pull,12.84,5.0,5.0
sanchez2017chimpanzees,2,2015,12,14,lobo,11,m,focal_participant_left,bangolo,6,m,focal_participant_right,chimpanzee,lobo_bangolo,3,5,1,1.0,free_exterior_side,roped_interior_side,non_social,non_social,1.48,4,no_pull,no_pull,1.0,1.0
sanchez2017chimpanzees,2,2015,12,14,lobo,11,m,focal_participant_left,bangolo,6,m,focal_participant_right,chimpanzee,lobo_bangolo,3,5,2,1.0,free_exterior_side,roped_interior_side,non_social,non_social,0.92,0.52,no_pull,no_pull,1.0,1.0
sanchez2017chimpanzees,2,2015,12,14,lobo,11,m,focal_participant_left,bangolo,6,m,focal_participant_right,chimpanzee,lobo_bangolo,3,5,3,1.0,roped_interior_side,free_exterior_side,social,social,0.16,0.16,1.44,no_pull,5.0,1.0
sanchez2017chimpanzees,2,2015,12,14,lobo,11,m,focal_participant_left,bangolo,6,m,focal_participant_right,chimpanzee,lobo_bangolo,3,5,4,1.0,roped_interior_side,free_exterior_side,social,social,0.32,0.52,no_pull,2.12,1.0,5.0
sanchez2017chimpanzees,2,2015,12,14,lobo,11,m,focal_participant_left,bangolo,6,m,focal_participant_right,chimpanzee,lobo_bangolo,3,5,5,1.0,free_exterior_side,roped_interior_side,non_social,non_social,0.6,1.04,no_pull,no_pull,1.0,1.0
sanchez2017chimpanzees,2,2015,12,14,lobo,11,m,focal_participant_left,bangolo,6,m,focal_participant_right,chimpanzee,lobo_bangolo,3,5,6,1.0,roped_interior_side,free_exterior_side,social,social,0.44,0.32,1.32,1.64,5.0,1.0
sanchez2017chimpanzees,2,2015,12,14,lobo,11,m,focal_participant_left,bangolo,6,m,focal_participant_right,chimpanzee,lobo_bangolo,3,5,7,1.0,free_exterior_side,roped_interior_side,non_social,non_social,1.4,1.36,no_pull,no_pull,1.0,1.0
sanchez2017chimpanzees,2,2015,12,14,lobo,11,m,focal_participant_left,bangolo,6,m,focal_participant_right,chimpanzee,lobo_bangolo,3,5,8,1.0,roped_interior_side,free_exterior_side,social,social,0.08,0.36,1.2,no_pull,5.0,1.0
sanchez2017chimpanzees,2,2015,12,15,bangolo,6,m,focal_participant_left,lobo,11,m,focal_participant_right,chimpanzee,bangolo_lobo,3,6,1,1.0,roped_interior_side,free_exterior_side,social,social,0.08,0.8,0.84,no_pull,5.0,1.0
sanchez2017chimpanzees,2,2015,12,15,bangolo,6,m,focal_participant_left,lobo,11,m,focal_participant_right,chimpanzee,bangolo_lobo,3,6,2,1.0,roped_interior_side,free_exterior_side,social,social,0.24,0.2,1.2,1.12,5.0,1.0
sanchez2017chimpanzees,2,2015,12,15,bangolo,6,m,focal_participant_left,lobo,11,m,focal_participant_right,chimpanzee,bangolo_lobo,3,6,3,1.0,free_exterior_side,roped_interior_side,non_social,non_social,1.56,1.2,no_pull,no_pull,1.0,1.0
sanchez2017chimpanzees,2,2015,12,15,bangolo,6,m,focal_participant_left,lobo,11,m,focal_participant_right,chimpanzee,bangolo_lobo,3,6,4,1.0,roped_interior_side,free_exterior_side,social,social,0.28,0.44,1,no_pull,5.0,1.0
sanchez2017chimpanzees,2,2015,12,15,bangolo,6,m,focal_participant_left,lobo,11,m,focal_participant_right,chimpanzee,bangolo_lobo,3,6,5,1.0,free_exterior_side,roped_interior_side,non_social,social,5.84,0.44,no_pull,11.04,1.0,1.0
sanchez2017chimpanzees,2,2015,12,15,bangolo,6,m,focal_participant_left,lobo,11,m,focal_participant_right,chimpanzee,bangolo_lobo,3,6,6,1.0,free_exterior_side,roped_interior_side,non_social,social,3.52,0.2,no_pull,1.12,1.0,1.0
sanchez2017chimpanzees,2,2015,12,15,bangolo,6,m,focal_participant_left,lobo,11,m,focal_participant_right,chimpanzee,bangolo_lobo,3,6,7,1.0,roped_interior_side,free_exterior_side,social,social,0.52,0.84,0.84,no_pull,5.0,1.0
sanchez2017chimpanzees,2,2015,12,15,bangolo,6,m,focal_participant_left,lobo,11,m,focal_participant_right,chimpanzee,bangolo_lobo,3,6,8,1.0,free_exterior_side,roped_interior_side,social,social,4.2,0.16,no_pull,1.44,5.0,1.0
sanchez2017chimpanzees,2,2015,12,16,lobo,11,m,focal_participant_left,bangolo,6,m,focal_participant_right,chimpanzee,lobo_bangolo,3,7,1,0.0,free_exterior_side,roped_interior_side,social,social,2.88,6.72,1.76,no_pull,1.0,5.0
sanchez2017chimpanzees,2,2015,12,16,lobo,11,m,focal_participant_left,bangolo,6,m,focal_participant_right,chimpanzee,lobo_bangolo,3,7,2,0.0,roped_interior_side,free_exterior_side,social,social,0.08,1.2,1.92,no_pull,5.0,1.0
sanchez2017chimpanzees,2,2015,12,16,lobo,11,m,focal_participant_left,bangolo,6,m,focal_participant_right,chimpanzee,lobo_bangolo,3,7,3,0.0,free_exterior_side,roped_interior_side,social,social,1.84,6.28,1.68,no_pull,1.0,5.0
sanchez2017chimpanzees,2,2015,12,16,lobo,11,m,focal_participant_left,bangolo,6,m,focal_participant_right,chimpanzee,lobo_bangolo,3,7,4,0.0,free_exterior_side,roped_interior_side,social,social,0.6,12.8,10.08,no_pull,1.0,5.0
sanchez2017chimpanzees,2,2015,12,16,lobo,11,m,focal_participant_left,bangolo,6,m,focal_participant_right,chimpanzee,lobo_bangolo,3,7,5,0.0,free_exterior_side,roped_interior_side,social,social,0.24,4.44,1.92,no_pull,1.0,5.0
sanchez2017chimpanzees,2,2015,12,16,lobo,11,m,focal_participant_left,bangolo,6,m,focal_participant_right,chimpanzee,lobo_bangolo,3,7,6,0.0,roped_interior_side,free_exterior_side,social,social,0.76,6.6,1.16,no_pull,5.0,1.0
sanchez2017chimpanzees,2,2015,12,16,lobo,11,m,focal_participant_left,bangolo,6,m,focal_participant_right,chimpanzee,lobo_bangolo,3,7,7,0.0,roped_interior_side,free_exterior_side,social,social,0.12,8.56,0.84,no_pull,5.0,1.0
sanchez2017chimpanzees,2,2015,12,16,lobo,11,m,focal_participant_left,bangolo,6,m,focal_participant_right,chimpanzee,lobo_bangolo,3,7,8,0.0,roped_interior_side,free_exterior_side,social,social,0.24,1.92,1.6,no_pull,5.0,1.0
sanchez2017chimpanzees,2,2015,12,17,bangolo,6,m,focal_participant_left,lobo,11,m,focal_participant_right,chimpanzee,bangolo_lobo,3,8,1,3.0,free_exterior_side,roped_interior_side,non_social,non_social,1.08,0.92,no_pull,no_pull,3.0,3.0
