study_id,participant,age_in_years,sex,species,session,trial,trial_subset,subset,early_item,late_item,coord_early_x,coord_early_y,coord_late_x,coord_late_y,magnitude,symbolic_distance,accuracy,latency,wavering,wavering_coder2
allritz2021chimpanzees,alex,13.0,m,chimpanzee,1,1,1,pair_14,1,4,1120,896,480,128,1,3,1,1087,0.0,
allritz2021chimpanzees,alex,13.0,m,chimpanzee,1,4,1,pair_25,2,5,1120,640,800,384,2,3,1,895,0.0,
allritz2021chimpanzees,alex,13.0,m,chimpanzee,1,9,1,pair_45,4,5,480,640,480,128,4,1,1,1054,0.0,
allritz2021chimpanzees,alex,13.0,m,chimpanzee,1,10,1,pair_24,2,4,160,896,800,384,2,2,1,900,0.0,
allritz2021chimpanzees,alex,13.0,m,chimpanzee,1,12,1,pair_13,1,3,480,640,1120,384,1,2,1,732,0.0,
allritz2021chimpanzees,alex,13.0,m,chimpanzee,1,17,1,pair_23,2,3,800,896,160,640,2,1,1,1173,0.0,
allritz2021chimpanzees,alex,13.0,m,chimpanzee,1,18,2,pair_24,2,4,480,128,1120,384,2,2,1,898,0.0,
allritz2021chimpanzees,alex,13.0,m,chimpanzee,1,20,1,pair_35,3,5,480,128,1120,896,3,2,1,1548,1.0,
allritz2021chimpanzees,alex,13.0,m,chimpanzee,1,26,1,pair_12,1,2,480,640,480,128,1,1,1,722,0.0,
allritz2021chimpanzees,alex,13.0,m,chimpanzee,1,29,2,pair_45,4,5,480,896,800,896,4,1,1,1364,1.0,
allritz2021chimpanzees,alex,13.0,m,chimpanzee,1,32,2,pair_14,1,4,480,128,480,640,1,3,1,919,0.0,
allritz2021chimpanzees,alex,13.0,m,chimpanzee,1,38,2,pair_23,2,3,800,896,1120,896,2,1,1,941,0.0,
allritz2021chimpanzees,alex,13.0,m,chimpanzee,1,40,3,pair_24,2,4,160,384,480,384,2,2,1,1469,0.0,
allritz2021chimpanzees,alex,13.0,m,chimpanzee,1,42,2,pair_12,1,2,480,384,800,640,1,1,1,765,0.0,
allritz2021chimpanzees,alex,13.0,m,chimpanzee,1,47,1,pair_15,1,5,160,896,480,640,1,4,1,628,0.0,
allritz2021chimpanzees,alex,13.0,m,chimpanzee,1,58,2,pair_15,1,5,160,896,480,128,1,4,1,699,0.0,
allritz2021chimpanzees,alex,13.0,m,chimpanzee,1,60,3,pair_14,1,4,800,640,800,896,1,3,1,905,0.0,
allritz2021chimpanzees,alex,13.0,m,chimpanzee,1,61,1,pair_34,3,4,160,896,480,896,3,1,1,1597,1.0,
allritz2021chimpanzees,alex,13.0,m,chimpanzee,1,65,2,pair_34,3,4,160,640,480,128,3,1,1,3301,2.0,
allritz2021chimpanzees,alex,13.0,m,chimpanzee,1,68,2,pair_25,2,5,800,384,480,896,2,3,1,989,0.0,
allritz2021chimpanzees,alex,13.0,m,chimpanzee,1,70,2,pair_35,3,5,160,896,800,896,3,2,1,1804,1.0,
allritz2021chimpanzees,alex,13.0,m,chimpanzee,1,73,3,pair_25,2,5,1120,640,1120,384,2,3,1,921,0.0,
allritz2021chimpanzees,alex,13.0,m,chimpanzee,1,78,3,pair_34,3,4,800,640,1120,640,3,1,1,1715,0.0,
allritz2021chimpanzees,alex,13.0,m,chimpanzee,1,80,2,pair_13,1,3,160,128,1120,640,1,2,1,1146,0.0,
allritz2021chimpanzees,alex,13.0,m,chimpanzee,1,82,3,pair_12,1,2,160,640,160,896,1,1,1,1080,0.0,
allritz2021chimpanzees,alex,13.0,m,chimpanzee,1,88,3,pair_45,4,5,160,640,1120,640,4,1,1,2973,4.0,
allritz2021chimpanzees,alex,13.0,m,chimpanzee,1,89,3,pair_23,2,3,1120,384,480,384,2,1,1,1249,0.0,
allritz2021chimpanzees,alex,13.0,m,chimpanzee,1,92,3,pair_35,3,5,1120,384,800,640,3,2,1,1129,0.0,
allritz2021chimpanzees,alex,13.0,m,chimpanzee,1,93,3,pair_15,1,5,480,128,1120,896,1,4,1,1094,1.0,
allritz2021chimpanzees,alex,13.0,m,chimpanzee,1,100,3,pair_13,1,3,160,128,800,128,1,2,1,853,0.0,
allritz2021chimpanzees,alex,13.0,m,chimpanzee,2,3,4,pair_13,1,3,800,896,480,640,1,2,1,743,0.0,1.0
allritz2021chimpanzees,alex,13.0,m,chimpanzee,2,6,4,pair_45,4,5,480,384,480,128,4,1,1,1381,1.0,2.0
allritz2021chimpanzees,alex,13.0,m,chimpanzee,2,8,5,pair_13,1,3,480,128,480,384,1,2,1,723,0.0,0.0
allritz2021chimpanzees,alex,13.0,m,chimpanzee,2,11,4,pair_12,1,2,800,128,800,896,1,1,0,1071,1.0,0.0
allritz2021chimpanzees,alex,13.0,m,chimpanzee,2,15,5,pair_12,1,2,160,896,800,384,1,1,1,1214,0.0,1.0
allritz2021chimpanzees,alex,13.0,m,chimpanzee,2,16,6,pair_13,1,3,160,640,480,384,1,2,1,672,0.0,0.0
allritz2021chimpanzees,alex,13.0,m,chimpanzee,2,18,4,pair_25,2,5,480,384,800,384,2,3,1,1116,0.0,0.0
allritz2021chimpanzees,alex,13.0,m,chimpanzee,2,19,4,pair_23,2,3,160,640,1120,896,2,1,1,1692,1.0,1.0
allritz2021chimpanzees,alex,13.0,m,chimpanzee,2,20,4,pair_35,3,5,160,128,160,896,3,2,1,1214,1.0,1.0
allritz2021chimpanzees,alex,13.0,m,chimpanzee,2,21,5,pair_25,2,5,1120,896,800,384,2,3,1,1292,1.0,0.0
allritz2021chimpanzees,alex,13.0,m,chimpanzee,2,22,4,pair_15,1,5,160,128,480,896,1,4,1,1020,1.0,1.0
allritz2021chimpanzees,alex,13.0,m,chimpanzee,2,24,5,pair_15,1,5,1120,128,160,896,1,4,1,834,1.0,1.0
allritz2021chimpanzees,alex,13.0,m,chimpanzee,2,26,4,pair_24,2,4,800,384,160,640,2,2,1,1062,0.0,0.0
allritz2021chimpanzees,alex,13.0,m,chimpanzee,2,30,4,pair_34,3,4,480,640,800,896,3,1,1,1318,2.0,2.0
allritz2021chimpanzees,alex,13.0,m,chimpanzee,2,36,5,pair_24,2,4,480,384,800,128,2,2,1,843,0.0,0.0
allritz2021chimpanzees,alex,13.0,m,chimpanzee,2,37,6,pair_25,2,5,480,128,1120,128,2,3,1,906,0.0,0.0
allritz2021chimpanzees,alex,13.0,m,chimpanzee,2,45,4,pair_14,1,4,800,896,1120,896,1,3,1,783,0.0,1.0
allritz2021chimpanzees,alex,13.0,m,chimpanzee,2,51,5,pair_35,3,5,1120,640,800,128,3,2,1,1196,0.0,0.0
allritz2021chimpanzees,alex,13.0,m,chimpanzee,2,52,5,pair_45,4,5,1120,384,800,128,4,1,1,1953,2.0,2.0
allritz2021chimpanzees,alex,13.0,m,chimpanzee,2,66,5,pair_23,2,3,480,640,480,384,2,1,1,743,1.0,0.0
allritz2021chimpanzees,alex,13.0,m,chimpanzee,2,69,6,pair_23,2,3,480,128,1120,896,2,1,1,1004,1.0,1.0
allritz2021chimpanzees,alex,13.0,m,chimpanzee,2,71,6,pair_35,3,5,1120,128,160,896,3,2,1,1253,1.0,1.0
allritz2021chimpanzees,alex,13.0,m,chimpanzee,2,75,6,pair_45,4,5,480,640,800,640,4,1,1,1538,1.0,2.0
allritz2021chimpanzees,alex,13.0,m,chimpanzee,2,79,5,pair_14,1,4,160,896,160,384,1,3,1,837,0.0,0.0
allritz2021chimpanzees,alex,13.0,m,chimpanzee,2,81,6,pair_14,1,4,480,384,1120,640,1,3,1,707,0.0,0.0
allritz2021chimpanzees,alex,13.0,m,chimpanzee,2,85,6,pair_12,1,2,1120,128,480,128,1,1,1,1117,0.0,0.0
allritz2021chimpanzees,alex,13.0,m,chimpanzee,2,91,6,pair_24,2,4,480,640,1120,128,2,2,1,1572,1.0,1.0
allritz2021chimpanzees,alex,13.0,m,chimpanzee,2,95,5,pair_34,3,4,480,896,800,128,3,1,1,3211,1.0,0.0
allritz2021chimpanzees,alex,13.0,m,chimpanzee,2,99,6,pair_15,1,5,160,896,160,128,1,4,1,881,0.0,0.0
allritz2021chimpanzees,alex,13.0,m,chimpanzee,2,100,6,pair_34,3,4,480,128,800,896,3,1,1,1639,1.0,1.0
allritz2021chimpanzees,alex,13.0,m,chimpanzee,3,4,7,pair_14,1,4,160,384,480,384,1,3,1,679,0.0,0.0
allritz2021chimpanzees,alex,13.0,m,chimpanzee,3,5,7,pair_45,4,5,1120,640,1120,896,4,1,1,2959,1.0,1.0
allritz2021chimpanzees,alex,13.0,m,chimpanzee,3,8,7,pair_35,3,5,480,384,1120,640,3,2,1,1103,1.0,1.0
allritz2021chimpanzees,alex,13.0,m,chimpanzee,3,13,7,pair_23,2,3,800,896,160,896,2,1,1,1825,1.0,2.0
allritz2021chimpanzees,alex,13.0,m,chimpanzee,3,19,8,pair_14,1,4,1120,640,1120,128,1,3,1,516,0.0,0.0
allritz2021chimpanzees,alex,13.0,m,chimpanzee,3,26,7,pair_25,2,5,160,640,1120,896,2,3,1,1032,0.0,1.0
allritz2021chimpanzees,alex,13.0,m,chimpanzee,3,27,7,pair_15,1,5,480,384,800,896,1,4,1,823,1.0,1.0
allritz2021chimpanzees,alex,13.0,m,chimpanzee,3,30,8,pair_45,4,5,800,384,160,896,4,1,1,2232,2.0,2.0
allritz2021chimpanzees,alex,13.0,m,chimpanzee,3,33,9,pair_45,4,5,480,640,160,640,4,1,1,2070,2.0,2.0
allritz2021chimpanzees,alex,13.0,m,chimpanzee,3,36,8,pair_23,2,3,160,384,1120,896,2,1,1,1312,1.0,1.0
allritz2021chimpanzees,alex,13.0,m,chimpanzee,3,38,7,pair_34,3,4,800,128,480,128,3,1,1,960,0.0,0.0
allritz2021chimpanzees,alex,13.0,m,chimpanzee,3,40,7,pair_12,1,2,1120,640,1120,384,1,1,1,832,0.0,0.0
allritz2021chimpanzees,alex,13.0,m,chimpanzee,3,42,8,pair_25,2,5,800,896,160,384,2,3,1,1344,0.0,0.0
allritz2021chimpanzees,alex,13.0,m,chimpanzee,3,44,8,pair_12,1,2,480,640,800,640,1,1,1,682,0.0,0.0
allritz2021chimpanzees,alex,13.0,m,chimpanzee,3,46,8,pair_15,1,5,160,640,480,640,1,4,1,717,0.0,0.0
allritz2021chimpanzees,alex,13.0,m,chimpanzee,3,58,9,pair_25,2,5,1120,384,480,384,2,3,1,838,0.0,0.0
allritz2021chimpanzees,alex,13.0,m,chimpanzee,3,61,7,pair_24,2,4,160,384,160,640,2,2,1,1238,0.0,0.0
allritz2021chimpanzees,alex,13.0,m,chimpanzee,3,65,8,pair_35,3,5,800,640,160,128,3,2,1,1299,0.0,2.0
allritz2021chimpanzees,alex,13.0,m,chimpanzee,3,67,9,pair_35,3,5,1120,384,160,128,3,2,1,2698,2.0,4.0
allritz2021chimpanzees,alex,13.0,m,chimpanzee,3,69,9,pair_12,1,2,800,128,1120,384,1,1,0,878,0.0,0.0
allritz2021chimpanzees,alex,13.0,m,chimpanzee,3,73,9,pair_15,1,5,160,896,160,384,1,4,1,962,0.0,0.0
allritz2021chimpanzees,alex,13.0,m,chimpanzee,3,75,8,pair_24,2,4,480,128,160,384,2,2,1,1094,0.0,0.0
allritz2021chimpanzees,alex,13.0,m,chimpanzee,3,76,8,pair_34,3,4,1120,896,160,128,3,1,1,2413,3.0,2.0
allritz2021chimpanzees,alex,13.0,m,chimpanzee,3,77,7,pair_13,1,3,1120,384,160,384,1,2,1,630,0.0,0.0
allritz2021chimpanzees,alex,13.0,m,chimpanzee,3,81,9,pair_24,2,4,160,640,1120,384,2,2,1,1016,0.0,1.0
allritz2021chimpanzees,alex,13.0,m,chimpanzee,3,83,8,pair_13,1,3,160,896,1120,896,1,2,1,852,2.0,1.0
allritz2021chimpanzees,alex,13.0,m,chimpanzee,3,85,9,pair_34,3,4,480,640,160,128,3,1,1,1426,0.0,0.0
allritz2021chimpanzees,alex,13.0,m,chimpanzee,3,93,9,pair_14,1,4,1120,896,480,896,1,3,1,838,2.0,2.0
allritz2021chimpanzees,alex,13.0,m,chimpanzee,3,94,9,pair_13,1,3,800,896,1120,128,1,2,1,1519,2.0,0.0
allritz2021chimpanzees,alex,13.0,m,chimpanzee,3,98,9,pair_23,2,3,480,128,480,896,2,1,1,1190,1.0,1.0
allritz2021chimpanzees,alex,13.0,m,chimpanzee,4,5,10,pair_45,4,5,480,896,1120,128,4,1,1,2228,1.0,
allritz2021chimpanzees,alex,13.0,m,chimpanzee,4,6,10,pair_12,1,2,800,640,1120,384,1,1,1,902,1.0,
allritz2021chimpanzees,alex,13.0,m,chimpanzee,4,9,11,pair_45,4,5,800,128,1120,640,4,1,1,950,1.0,
allritz2021chimpanzees,alex,13.0,m,chimpanzee,4,14,10,pair_24,2,4,160,896,480,128,2,2,1,1236,0.0,
allritz2021chimpanzees,alex,13.0,m,chimpanzee,4,17,12,pair_45,4,5,480,384,160,128,4,1,1,1913,0.0,
allritz2021chimpanzees,alex,13.0,m,chimpanzee,4,19,10,pair_13,1,3,1120,896,160,128,1,2,1,583,0.0,
allritz2021chimpanzees,alex,13.0,m,chimpanzee,4,20,10,pair_15,1,5,480,384,1120,128,1,4,1,755,0.0,
allritz2021chimpanzees,alex,13.0,m,chimpanzee,4,21,11,pair_15,1,5,1120,384,800,896,1,4,1,895,1.0,
allritz2021chimpanzees,alex,13.0,m,chimpanzee,4,26,10,pair_25,2,5,480,128,1120,896,2,3,1,1113,1.0,
allritz2021chimpanzees,alex,13.0,m,chimpanzee,4,30,11,pair_25,2,5,800,640,160,384,2,3,1,1467,0.0,
allritz2021chimpanzees,alex,13.0,m,chimpanzee,4,31,10,pair_14,1,4,800,384,160,128,1,3,1,862,0.0,
allritz2021chimpanzees,alex,13.0,m,chimpanzee,4,36,11,pair_24,2,4,800,128,160,640,2,2,1,1066,1.0,
allritz2021chimpanzees,alex,13.0,m,chimpanzee,4,39,10,pair_34,3,4,1120,896,160,384,3,1,1,3725,3.0,
allritz2021chimpanzees,alex,13.0,m,chimpanzee,4,44,11,pair_14,1,4,800,128,480,128,1,3,1,841,0.0,
allritz2021chimpanzees,alex,13.0,m,chimpanzee,4,47,10,pair_23,2,3,480,128,480,896,2,1,1,1206,1.0,
allritz2021chimpanzees,alex,13.0,m,chimpanzee,4,49,12,pair_15,1,5,800,128,1120,128,1,4,1,900,0.0,
allritz2021chimpanzees,alex,13.0,m,chimpanzee,4,54,12,pair_25,2,5,1120,640,800,128,2,3,1,926,0.0,
allritz2021chimpanzees,alex,13.0,m,chimpanzee,4,58,11,pair_13,1,3,480,896,1120,384,1,2,1,699,0.0,
allritz2021chimpanzees,alex,13.0,m,chimpanzee,4,65,11,pair_34,3,4,160,640,480,640,3,1,1,1286,0.0,
allritz2021chimpanzees,alex,13.0,m,chimpanzee,4,68,12,pair_13,1,3,800,128,800,640,1,2,1,909,0.0,
allritz2021chimpanzees,alex,13.0,m,chimpanzee,4,70,11,pair_12,1,2,480,384,480,896,1,1,1,827,1.0,
allritz2021chimpanzees,alex,13.0,m,chimpanzee,4,76,11,pair_23,2,3,480,128,800,896,2,1,1,1084,1.0,
allritz2021chimpanzees,alex,13.0,m,chimpanzee,4,80,10,pair_35,3,5,160,128,800,384,3,2,1,841,0.0,
allritz2021chimpanzees,alex,13.0,m,chimpanzee,4,85,12,pair_23,2,3,1120,384,480,640,2,1,1,1417,0.0,
allritz2021chimpanzees,alex,13.0,m,chimpanzee,4,86,12,pair_14,1,4,1120,384,480,640,1,3,1,768,0.0,
allritz2021chimpanzees,alex,13.0,m,chimpanzee,4,90,12,pair_34,3,4,160,640,800,640,3,1,1,938,0.0,
allritz2021chimpanzees,alex,13.0,m,chimpanzee,4,91,12,pair_24,2,4,800,128,800,384,2,2,1,1066,0.0,
allritz2021chimpanzees,alex,13.0,m,chimpanzee,4,93,11,pair_35,3,5,160,896,800,896,3,2,1,1616,1.0,
allritz2021chimpanzees,alex,13.0,m,chimpanzee,4,96,12,pair_35,3,5,1120,384,1120,640,3,2,1,1352,0.0,
allritz2021chimpanzees,alex,13.0,m,chimpanzee,4,97,12,pair_12,1,2,1120,896,800,896,1,1,1,712,0.0,
allritz2021chimpanzees,alex,13.0,m,chimpanzee,5,1,13,pair_35,3,5,800,128,800,896,3,2,1,948,1.0,
allritz2021chimpanzees,alex,13.0,m,chimpanzee,5,5,13,pair_15,1,5,480,640,800,128,1,4,1,555,0.0,
allritz2021chimpanzees,alex,13.0,m,chimpanzee,5,13,13,pair_14,1,4,160,640,480,384,1,3,1,646,0.0,
allritz2021chimpanzees,alex,13.0,m,chimpanzee,5,16,14,pair_35,3,5,1120,896,480,640,3,2,1,1464,1.0,
allritz2021chimpanzees,alex,13.0,m,chimpanzee,5,20,13,pair_34,3,4,1120,896,480,384,3,1,1,1515,1.0,
allritz2021chimpanzees,alex,13.0,m,chimpanzee,5,21,13,pair_12,1,2,1120,896,1120,384,1,1,1,790,0.0,
allritz2021chimpanzees,alex,13.0,m,chimpanzee,5,23,13,pair_25,2,5,800,384,800,128,2,3,1,1216,0.0,
allritz2021chimpanzees,alex,13.0,m,chimpanzee,5,25,14,pair_12,1,2,800,128,480,128,1,1,1,832,0.0,
allritz2021chimpanzees,alex,13.0,m,chimpanzee,5,29,14,pair_15,1,5,160,640,480,384,1,4,1,619,0.0,
allritz2021chimpanzees,alex,13.0,m,chimpanzee,5,30,15,pair_15,1,5,160,128,1120,384,1,4,1,767,0.0,
allritz2021chimpanzees,alex,13.0,m,chimpanzee,5,32,13,pair_23,2,3,1120,896,1120,128,2,1,0,1897,1.0,
allritz2021chimpanzees,alex,13.0,m,chimpanzee,5,34,13,pair_13,1,3,480,896,800,128,1,2,1,3712,1.0,
allritz2021chimpanzees,alex,13.0,m,chimpanzee,5,47,14,pair_14,1,4,800,384,1120,896,1,3,1,876,0.0,
allritz2021chimpanzees,alex,13.0,m,chimpanzee,5,50,13,pair_24,2,4,480,640,160,896,2,2,1,1256,0.0,
allritz2021chimpanzees,alex,13.0,m,chimpanzee,5,53,13,pair_45,4,5,1120,640,800,896,4,1,1,2962,4.0,
allritz2021chimpanzees,alex,13.0,m,chimpanzee,5,55,14,pair_34,3,4,160,128,480,384,3,1,1,742,0.0,
allritz2021chimpanzees,alex,13.0,m,chimpanzee,5,57,14,pair_25,2,5,1120,896,480,384,2,3,1,1562,1.0,
allritz2021chimpanzees,alex,13.0,m,chimpanzee,5,60,14,pair_45,4,5,1120,640,1120,896,4,1,1,2715,1.0,
allritz2021chimpanzees,alex,13.0,m,chimpanzee,5,66,14,pair_23,2,3,800,640,480,384,2,1,1,777,0.0,
allritz2021chimpanzees,alex,13.0,m,chimpanzee,5,71,15,pair_34,3,4,160,896,480,896,3,1,1,924,0.0,
allritz2021chimpanzees,alex,13.0,m,chimpanzee,5,72,15,pair_14,1,4,480,384,800,640,1,3,1,675,0.0,
allritz2021chimpanzees,alex,13.0,m,chimpanzee,5,73,15,pair_23,2,3,800,128,160,896,2,1,0,2916,2.0,
allritz2021chimpanzees,alex,13.0,m,chimpanzee,5,78,14,pair_24,2,4,160,384,480,896,2,2,1,825,0.0,
allritz2021chimpanzees,alex,13.0,m,chimpanzee,5,80,15,pair_25,2,5,160,128,480,128,2,3,1,791,0.0,
allritz2021chimpanzees,alex,13.0,m,chimpanzee,5,81,15,pair_35,3,5,480,128,160,640,3,2,1,900,0.0,
allritz2021chimpanzees,alex,13.0,m,chimpanzee,5,85,14,pair_13,1,3,480,128,800,384,1,2,1,626,0.0,
allritz2021chimpanzees,alex,13.0,m,chimpanzee,5,86,15,pair_24,2,4,160,384,1120,128,2,2,1,646,0.0,
allritz2021chimpanzees,alex,13.0,m,chimpanzee,5,91,15,pair_13,1,3,160,896,800,384,1,2,1,1094,1.0,
allritz2021chimpanzees,alex,13.0,m,chimpanzee,5,93,15,pair_12,1,2,480,640,480,128,1,1,1,536,0.0,
allritz2021chimpanzees,alex,13.0,m,chimpanzee,5,99,15,pair_45,4,5,160,640,160,128,4,1,1,1907,0.0,
allritz2021chimpanzees,alex,13.0,m,chimpanzee,6,1,16,pair_45,4,5,480,896,1120,384,4,1,1,2343,2.0,
allritz2021chimpanzees,alex,13.0,m,chimpanzee,6,5,16,pair_12,1,2,800,896,1120,128,1,1,1,587,0.0,
allritz2021chimpanzees,alex,13.0,m,chimpanzee,6,7,16,pair_13,1,3,800,384,1120,128,1,2,1,466,0.0,
allritz2021chimpanzees,alex,13.0,m,chimpanzee,6,9,17,pair_12,1,2,480,128,800,896,1,1,1,1146,1.0,
allritz2021chimpanzees,alex,13.0,m,chimpanzee,6,13,16,pair_23,2,3,160,896,480,896,2,1,0,1019,1.0,
allritz2021chimpanzees,alex,13.0,m,chimpanzee,6,14,17,pair_45,4,5,800,640,480,896,4,1,1,1733,2.0,
allritz2021chimpanzees,alex,13.0,m,chimpanzee,6,16,16,pair_14,1,4,480,384,800,128,1,3,1,626,0.0,
allritz2021chimpanzees,alex,13.0,m,chimpanzee,6,18,16,pair_24,2,4,1120,896,1120,128,2,2,1,1245,1.0,
allritz2021chimpanzees,alex,13.0,m,chimpanzee,6,21,16,pair_35,3,5,160,896,480,896,3,2,1,1147,0.0,
allritz2021chimpanzees,alex,13.0,m,chimpanzee,6,32,17,pair_13,1,3,160,128,480,128,1,2,1,777,0.0,
allritz2021chimpanzees,alex,13.0,m,chimpanzee,6,34,16,pair_25,2,5,800,896,1120,384,2,3,1,1628,1.0,
allritz2021chimpanzees,alex,13.0,m,chimpanzee,6,36,17,pair_25,2,5,800,896,480,640,2,3,1,971,0.0,
allritz2021chimpanzees,alex,13.0,m,chimpanzee,6,37,16,pair_15,1,5,1120,640,160,128,1,4,1,553,0.0,
allritz2021chimpanzees,alex,13.0,m,chimpanzee,6,48,17,pair_24,2,4,160,640,800,896,2,2,1,992,0.0,
allritz2021chimpanzees,alex,13.0,m,chimpanzee,6,49,17,pair_14,1,4,160,640,480,384,1,3,1,676,0.0,
allritz2021chimpanzees,alex,13.0,m,chimpanzee,6,56,18,pair_45,4,5,480,640,160,896,4,1,1,1760,1.0,
allritz2021chimpanzees,alex,13.0,m,chimpanzee,6,58,18,pair_13,1,3,800,640,800,384,1,2,1,707,0.0,
allritz2021chimpanzees,alex,13.0,m,chimpanzee,6,61,18,pair_12,1,2,1120,128,160,640,1,1,1,1039,0.0,
allritz2021chimpanzees,alex,13.0,m,chimpanzee,6,62,17,pair_23,2,3,800,896,160,640,2,1,1,1734,1.0,
allritz2021chimpanzees,alex,13.0,m,chimpanzee,6,65,16,pair_34,3,4,1120,896,800,128,3,1,1,1290,1.0,
allritz2021chimpanzees,alex,13.0,m,chimpanzee,6,71,18,pair_25,2,5,1120,384,480,128,2,3,1,872,0.0,
allritz2021chimpanzees,alex,13.0,m,chimpanzee,6,72,18,pair_24,2,4,800,640,160,384,2,2,1,1116,0.0,
allritz2021chimpanzees,alex,13.0,m,chimpanzee,6,73,17,pair_35,3,5,160,384,480,384,3,2,1,1049,0.0,
allritz2021chimpanzees,alex,13.0,m,chimpanzee,6,75,17,pair_15,1,5,1120,896,480,384,1,4,1,696,0.0,
allritz2021chimpanzees,alex,13.0,m,chimpanzee,6,78,18,pair_15,1,5,1120,128,1120,640,1,4,1,1223,2.0,
allritz2021chimpanzees,alex,13.0,m,chimpanzee,6,82,18,pair_23,2,3,1120,128,800,640,2,1,1,923,0.0,
allritz2021chimpanzees,alex,13.0,m,chimpanzee,6,89,17,pair_34,3,4,800,640,160,384,3,1,1,1209,0.0,
allritz2021chimpanzees,alex,13.0,m,chimpanzee,6,91,18,pair_34,3,4,800,128,1120,896,3,1,1,2097,2.0,
allritz2021chimpanzees,alex,13.0,m,chimpanzee,6,92,18,pair_14,1,4,800,640,480,640,1,3,1,677,0.0,
allritz2021chimpanzees,alex,13.0,m,chimpanzee,6,95,18,pair_35,3,5,1120,640,800,128,3,2,1,1146,0.0,
allritz2021chimpanzees,alex,13.0,m,chimpanzee,7,4,19,pair_25,2,5,160,128,480,128,2,3,1,779,0.0,
allritz2021chimpanzees,alex,13.0,m,chimpanzee,7,5,19,pair_35,3,5,480,384,160,896,3,2,1,1211,1.0,
allritz2021chimpanzees,alex,13.0,m,chimpanzee,7,6,19,pair_12,1,2,480,384,160,640,1,1,1,1039,0.0,
allritz2021chimpanzees,alex,13.0,m,chimpanzee,7,9,20,pair_35,3,5,800,128,480,640,3,2,1,806,0.0,
allritz2021chimpanzees,alex,13.0,m,chimpanzee,7,10,19,pair_14,1,4,800,896,1120,896,1,3,1,660,0.0,
allritz2021chimpanzees,alex,13.0,m,chimpanzee,7,16,20,pair_25,2,5,480,640,480,384,2,3,1,1036,0.0,
allritz2021chimpanzees,alex,13.0,m,chimpanzee,7,22,20,pair_12,1,2,1120,128,480,384,1,1,1,776,0.0,
allritz2021chimpanzees,alex,13.0,m,chimpanzee,7,24,19,pair_13,1,3,800,384,800,128,1,2,0,1021,0.0,
allritz2021chimpanzees,alex,13.0,m,chimpanzee,7,27,20,pair_13,1,3,160,896,1120,128,1,2,1,801,0.0,
allritz2021chimpanzees,alex,13.0,m,chimpanzee,7,30,19,pair_24,2,4,480,896,480,384,2,2,1,856,0.0,
allritz2021chimpanzees,alex,13.0,m,chimpanzee,7,31,19,pair_34,3,4,1120,384,1120,896,3,1,1,2496,3.0,
allritz2021chimpanzees,alex,13.0,m,chimpanzee,7,32,20,pair_34,3,4,160,384,1120,384,3,1,1,918,0.0,
allritz2021chimpanzees,alex,13.0,m,chimpanzee,7,33,20,pair_14,1,4,1120,640,800,384,1,3,1,850,0.0,
allritz2021chimpanzees,alex,13.0,m,chimpanzee,7,40,19,pair_23,2,3,800,384,160,128,2,1,0,953,0.0,
allritz2021chimpanzees,alex,13.0,m,chimpanzee,7,44,21,pair_13,1,3,1120,128,1120,640,1,2,1,843,0.0,
allritz2021chimpanzees,alex,13.0,m,chimpanzee,7,47,21,pair_34,3,4,1120,896,480,896,3,1,1,1476,1.0,
allritz2021chimpanzees,alex,13.0,m,chimpanzee,7,50,20,pair_23,2,3,160,896,160,128,2,1,1,1853,2.0,
allritz2021chimpanzees,alex,13.0,m,chimpanzee,7,55,21,pair_12,1,2,800,896,160,128,1,1,1,1292,0.0,
allritz2021chimpanzees,alex,13.0,m,chimpanzee,7,58,19,pair_45,4,5,160,384,480,640,4,1,1,1745,1.0,
allritz2021chimpanzees,alex,13.0,m,chimpanzee,7,61,20,pair_45,4,5,480,640,160,384,4,1,1,1564,3.0,
allritz2021chimpanzees,alex,13.0,m,chimpanzee,7,63,21,pair_45,4,5,160,640,800,128,4,1,1,1821,1.0,
allritz2021chimpanzees,alex,13.0,m,chimpanzee,7,64,21,pair_25,2,5,800,384,1120,384,2,3,1,904,0.0,
allritz2021chimpanzees,alex,13.0,m,chimpanzee,7,70,21,pair_35,3,5,1120,128,480,896,3,2,1,1346,1.0,
allritz2021chimpanzees,alex,13.0,m,chimpanzee,7,73,19,pair_15,1,5,800,128,480,128,1,4,1,803,0.0,
allritz2021chimpanzees,alex,13.0,m,chimpanzee,7,75,21,pair_14,1,4,1120,640,160,128,1,3,1,797,0.0,
allritz2021chimpanzees,alex,13.0,m,chimpanzee,7,78,20,pair_24,2,4,1120,640,800,128,2,2,1,977,0.0,
allritz2021chimpanzees,alex,13.0,m,chimpanzee,7,84,21,pair_24,2,4,1120,384,160,128,2,2,1,795,0.0,
allritz2021chimpanzees,alex,13.0,m,chimpanzee,7,86,20,pair_15,1,5,800,896,480,384,1,4,1,592,0.0,
allritz2021chimpanzees,alex,13.0,m,chimpanzee,7,88,21,pair_15,1,5,1120,384,1120,896,1,4,1,884,1.0,
allritz2021chimpanzees,alex,13.0,m,chimpanzee,7,97,21,pair_23,2,3,480,128,160,128,2,1,1,847,0.0,
allritz2021chimpanzees,alex,13.0,m,chimpanzee,8,7,22,pair_14,1,4,480,128,1120,896,1,3,1,916,0.0,1.0
allritz2021chimpanzees,alex,13.0,m,chimpanzee,8,9,22,pair_12,1,2,160,896,1120,896,1,1,1,702,1.0,1.0
allritz2021chimpanzees,alex,13.0,m,chimpanzee,8,17,22,pair_34,3,4,480,128,800,640,3,1,1,924,1.0,1.0
allritz2021chimpanzees,alex,13.0,m,chimpanzee,8,29,22,pair_45,4,5,1120,640,160,640,4,1,1,1977,1.0,2.0
allritz2021chimpanzees,alex,13.0,m,chimpanzee,8,41,23,pair_14,1,4,480,128,480,896,1,3,1,1106,1.0,1.0
allritz2021chimpanzees,alex,13.0,m,chimpanzee,8,43,22,pair_13,1,3,800,896,1120,896,1,2,1,830,1.0,3.0
allritz2021chimpanzees,alex,13.0,m,chimpanzee,8,44,22,pair_35,3,5,480,896,160,896,3,2,1,1342,0.0,0.0
allritz2021chimpanzees,alex,13.0,m,chimpanzee,8,45,23,pair_35,3,5,800,128,480,896,3,2,1,1178,1.0,1.0
allritz2021chimpanzees,alex,13.0,m,chimpanzee,8,46,23,pair_13,1,3,800,640,1120,896,1,2,1,954,1.0,1.0
allritz2021chimpanzees,alex,13.0,m,chimpanzee,8,48,22,pair_25,2,5,480,128,160,640,2,3,1,952,1.0,1.0
allritz2021chimpanzees,alex,13.0,m,chimpanzee,8,50,23,pair_12,1,2,160,128,1120,640,1,1,0,1753,2.0,2.0
allritz2021chimpanzees,alex,13.0,m,chimpanzee,8,51,23,pair_45,4,5,800,384,1120,896,4,1,1,2561,2.0,3.0
allritz2021chimpanzees,alex,13.0,m,chimpanzee,8,54,22,pair_23,2,3,480,128,1120,128,2,1,1,1335,0.0,1.0
allritz2021chimpanzees,alex,13.0,m,chimpanzee,8,58,24,pair_13,1,3,480,640,160,128,1,2,1,7316,0.0,0.0
allritz2021chimpanzees,alex,13.0,m,chimpanzee,8,60,22,pair_15,1,5,1120,640,160,640,1,4,1,785,0.0,1.0
allritz2021chimpanzees,alex,13.0,m,chimpanzee,8,61,23,pair_25,2,5,800,640,160,896,2,3,1,1455,2.0,1.0
allritz2021chimpanzees,alex,13.0,m,chimpanzee,8,62,23,pair_34,3,4,800,896,480,128,3,1,1,1611,0.0,0.0
allritz2021chimpanzees,alex,13.0,m,chimpanzee,8,66,23,pair_23,2,3,800,640,160,384,2,1,0,2660,3.0,3.0
allritz2021chimpanzees,alex,13.0,m,chimpanzee,8,68,22,pair_24,2,4,1120,640,160,640,2,2,1,1816,0.0,0.0
allritz2021chimpanzees,alex,13.0,m,chimpanzee,8,76,24,pair_12,1,2,1120,128,480,640,1,1,1,741,0.0,0.0
allritz2021chimpanzees,alex,13.0,m,chimpanzee,8,77,23,pair_24,2,4,480,896,160,896,2,2,1,1186,1.0,1.0
allritz2021chimpanzees,alex,13.0,m,chimpanzee,8,79,24,pair_14,1,4,1120,384,160,640,1,3,1,751,1.0,1.0
allritz2021chimpanzees,alex,13.0,m,chimpanzee,8,81,24,pair_45,4,5,160,384,800,640,4,1,1,1871,0.0,0.0
allritz2021chimpanzees,alex,13.0,m,chimpanzee,8,86,23,pair_15,1,5,1120,384,480,128,1,4,1,877,0.0,0.0
allritz2021chimpanzees,alex,13.0,m,chimpanzee,8,88,24,pair_15,1,5,1120,128,160,128,1,4,1,685,0.0,0.0
allritz2021chimpanzees,alex,13.0,m,chimpanzee,8,89,24,pair_35,3,5,480,896,1120,640,3,2,1,1627,0.0,0.0
allritz2021chimpanzees,alex,13.0,m,chimpanzee,8,90,24,pair_23,2,3,160,640,800,128,2,1,1,1847,1.0,1.0
allritz2021chimpanzees,alex,13.0,m,chimpanzee,8,96,24,pair_34,3,4,160,128,800,896,3,1,1,1747,2.0,2.0
allritz2021chimpanzees,alex,13.0,m,chimpanzee,8,99,24,pair_24,2,4,480,128,160,896,2,2,1,889,1.0,1.0
allritz2021chimpanzees,alex,13.0,m,chimpanzee,8,100,24,pair_25,2,5,800,640,160,128,2,3,1,1327,0.0,0.0
allritz2021chimpanzees,jahaga,22.0,f,chimpanzee,1,2,1,pair_35,3,5,160,896,160,128,3,2,1,823,0.0,
allritz2021chimpanzees,jahaga,22.0,f,chimpanzee,1,9,1,pair_13,1,3,160,384,1120,640,1,2,1,531,0.0,
allritz2021chimpanzees,jahaga,22.0,f,chimpanzee,1,12,1,pair_23,2,3,800,896,1120,128,2,1,1,902,1.0,
allritz2021chimpanzees,jahaga,22.0,f,chimpanzee,1,18,1,pair_45,4,5,800,640,480,384,4,1,1,2219,4.0,
allritz2021chimpanzees,jahaga,22.0,f,chimpanzee,1,22,1,pair_12,1,2,160,640,1120,384,1,1,1,1407,1.0,
allritz2021chimpanzees,jahaga,22.0,f,chimpanzee,1,24,1,pair_15,1,5,800,640,1120,384,1,4,1,674,0.0,
allritz2021chimpanzees,jahaga,22.0,f,chimpanzee,1,25,1,pair_25,2,5,1120,896,480,896,2,3,1,719,0.0,
allritz2021chimpanzees,jahaga,22.0,f,chimpanzee,1,27,2,pair_25,2,5,800,640,800,128,2,3,1,1554,1.0,
allritz2021chimpanzees,jahaga,22.0,f,chimpanzee,1,29,2,pair_23,2,3,800,640,800,384,2,1,1,594,0.0,
allritz2021chimpanzees,jahaga,22.0,f,chimpanzee,1,35,1,pair_34,3,4,800,128,480,640,3,1,1,668,0.0,
allritz2021chimpanzees,jahaga,22.0,f,chimpanzee,1,36,1,pair_14,1,4,160,896,160,384,1,3,1,636,0.0,
allritz2021chimpanzees,jahaga,22.0,f,chimpanzee,1,40,3,pair_23,2,3,480,384,800,896,2,1,0,1680,3.0,
allritz2021chimpanzees,jahaga,22.0,f,chimpanzee,1,41,3,pair_25,2,5,480,128,160,128,2,3,1,855,0.0,
allritz2021chimpanzees,jahaga,22.0,f,chimpanzee,1,48,2,pair_45,4,5,480,640,160,128,4,1,1,876,0.0,
allritz2021chimpanzees,jahaga,22.0,f,chimpanzee,1,49,2,pair_13,1,3,480,128,480,896,1,2,1,548,0.0,
allritz2021chimpanzees,jahaga,22.0,f,chimpanzee,1,51,3,pair_45,4,5,480,128,160,128,4,1,1,907,0.0,
allritz2021chimpanzees,jahaga,22.0,f,chimpanzee,1,52,2,pair_35,3,5,480,640,160,640,3,2,1,1525,1.0,
allritz2021chimpanzees,jahaga,22.0,f,chimpanzee,1,59,1,pair_24,2,4,800,384,160,384,2,2,1,555,0.0,
allritz2021chimpanzees,jahaga,22.0,f,chimpanzee,1,61,2,pair_12,1,2,800,128,480,384,1,1,1,601,0.0,
allritz2021chimpanzees,jahaga,22.0,f,chimpanzee,1,62,2,pair_24,2,4,800,128,800,640,2,2,1,826,1.0,
allritz2021chimpanzees,jahaga,22.0,f,chimpanzee,1,64,2,pair_15,1,5,1120,896,1120,640,1,4,1,1190,0.0,
allritz2021chimpanzees,jahaga,22.0,f,chimpanzee,1,70,3,pair_15,1,5,1120,896,160,896,1,4,1,904,0.0,
allritz2021chimpanzees,jahaga,22.0,f,chimpanzee,1,71,3,pair_24,2,4,1120,128,800,128,2,2,1,3189,0.0,
allritz2021chimpanzees,jahaga,22.0,f,chimpanzee,1,74,3,pair_13,1,3,160,640,480,384,1,2,1,593,0.0,
allritz2021chimpanzees,jahaga,22.0,f,chimpanzee,1,77,3,pair_12,1,2,1120,128,800,640,1,1,1,739,0.0,
allritz2021chimpanzees,jahaga,22.0,f,chimpanzee,1,80,2,pair_34,3,4,480,640,1120,640,3,1,1,794,0.0,
allritz2021chimpanzees,jahaga,22.0,f,chimpanzee,1,91,2,pair_14,1,4,1120,128,800,640,1,3,1,752,0.0,
allritz2021chimpanzees,jahaga,22.0,f,chimpanzee,1,93,3,pair_14,1,4,800,128,800,640,1,3,1,662,0.0,
allritz2021chimpanzees,jahaga,22.0,f,chimpanzee,1,95,3,pair_35,3,5,1120,128,480,128,3,2,1,1566,1.0,
allritz2021chimpanzees,jahaga,22.0,f,chimpanzee,1,100,3,pair_34,3,4,480,640,480,384,3,1,1,1285,0.0,
allritz2021chimpanzees,jahaga,22.0,f,chimpanzee,2,4,4,pair_15,1,5,1120,384,160,384,1,4,1,558,0.0,
allritz2021chimpanzees,jahaga,22.0,f,chimpanzee,2,5,4,pair_25,2,5,480,384,800,128,2,3,1,625,0.0,
allritz2021chimpanzees,jahaga,22.0,f,chimpanzee,2,13,5,pair_15,1,5,160,640,480,896,1,4,1,529,0.0,
allritz2021chimpanzees,jahaga,22.0,f,chimpanzee,2,15,4,pair_14,1,4,480,128,800,640,1,3,1,528,0.0,
allritz2021chimpanzees,jahaga,22.0,f,chimpanzee,2,19,4,pair_35,3,5,480,896,800,128,3,2,1,649,0.0,
allritz2021chimpanzees,jahaga,22.0,f,chimpanzee,2,20,5,pair_14,1,4,160,896,1120,128,1,3,1,714,0.0,
allritz2021chimpanzees,jahaga,22.0,f,chimpanzee,2,21,4,pair_34,3,4,480,640,480,896,3,1,1,1404,1.0,
allritz2021chimpanzees,jahaga,22.0,f,chimpanzee,2,25,4,pair_24,2,4,1120,896,1120,128,2,2,1,629,0.0,
allritz2021chimpanzees,jahaga,22.0,f,chimpanzee,2,29,4,pair_12,1,2,480,896,480,128,1,1,0,549,0.0,
allritz2021chimpanzees,jahaga,22.0,f,chimpanzee,2,32,4,pair_13,1,3,160,384,1120,640,1,2,1,562,0.0,
allritz2021chimpanzees,jahaga,22.0,f,chimpanzee,2,35,5,pair_35,3,5,160,128,160,384,3,2,1,934,0.0,
allritz2021chimpanzees,jahaga,22.0,f,chimpanzee,2,37,5,pair_12,1,2,1120,640,480,384,1,1,1,698,0.0,
allritz2021chimpanzees,jahaga,22.0,f,chimpanzee,2,43,6,pair_14,1,4,1120,896,1120,128,1,3,1,702,0.0,
allritz2021chimpanzees,jahaga,22.0,f,chimpanzee,2,49,6,pair_35,3,5,1120,128,160,128,3,2,1,1381,1.0,
allritz2021chimpanzees,jahaga,22.0,f,chimpanzee,2,52,5,pair_13,1,3,1120,640,1120,128,1,2,1,830,0.0,
allritz2021chimpanzees,jahaga,22.0,f,chimpanzee,2,54,6,pair_15,1,5,480,640,160,384,1,4,1,447,0.0,
allritz2021chimpanzees,jahaga,22.0,f,chimpanzee,2,55,4,pair_45,4,5,160,384,1120,128,4,1,1,1941,2.0,
allritz2021chimpanzees,jahaga,22.0,f,chimpanzee,2,56,5,pair_45,4,5,160,384,1120,640,4,1,0,2104,2.0,
allritz2021chimpanzees,jahaga,22.0,f,chimpanzee,2,57,6,pair_13,1,3,480,384,800,896,1,2,1,542,0.0,
allritz2021chimpanzees,jahaga,22.0,f,chimpanzee,2,63,4,pair_23,2,3,480,384,160,896,2,1,1,513,0.0,
allritz2021chimpanzees,jahaga,22.0,f,chimpanzee,2,64,6,pair_12,1,2,480,896,1120,640,1,1,1,771,0.0,
allritz2021chimpanzees,jahaga,22.0,f,chimpanzee,2,69,5,pair_24,2,4,800,128,480,128,2,2,0,981,1.0,
allritz2021chimpanzees,jahaga,22.0,f,chimpanzee,2,75,5,pair_25,2,5,480,896,1120,896,2,3,1,573,0.0,
allritz2021chimpanzees,jahaga,22.0,f,chimpanzee,2,76,5,pair_34,3,4,1120,128,160,896,3,1,1,800,0.0,
allritz2021chimpanzees,jahaga,22.0,f,chimpanzee,2,80,6,pair_45,4,5,800,128,1120,896,4,1,1,874,0.0,
allritz2021chimpanzees,jahaga,22.0,f,chimpanzee,2,81,6,pair_24,2,4,1120,896,800,896,2,2,0,648,0.0,
allritz2021chimpanzees,jahaga,22.0,f,chimpanzee,2,84,5,pair_23,2,3,480,384,1120,896,2,1,1,1323,2.0,
allritz2021chimpanzees,jahaga,22.0,f,chimpanzee,2,87,6,pair_34,3,4,160,384,160,128,3,1,1,845,0.0,
allritz2021chimpanzees,jahaga,22.0,f,chimpanzee,2,93,6,pair_23,2,3,800,128,160,896,2,1,0,769,0.0,
allritz2021chimpanzees,jahaga,22.0,f,chimpanzee,2,97,6,pair_25,2,5,1120,384,1120,640,2,3,1,735,0.0,
allritz2021chimpanzees,jahaga,22.0,f,chimpanzee,3,3,7,pair_25,2,5,480,640,1120,640,2,3,1,697,0.0,0.0
allritz2021chimpanzees,jahaga,22.0,f,chimpanzee,3,5,7,pair_13,1,3,800,128,160,128,1,2,1,575,0.0,0.0
allritz2021chimpanzees,jahaga,22.0,f,chimpanzee,3,6,7,pair_24,2,4,480,896,160,896,2,2,1,825,0.0,0.0
allritz2021chimpanzees,jahaga,22.0,f,chimpanzee,3,11,7,pair_34,3,4,800,640,160,896,3,1,1,642,0.0,0.0
allritz2021chimpanzees,jahaga,22.0,f,chimpanzee,3,21,7,pair_15,1,5,160,128,480,640,1,4,1,736,0.0,0.0
allritz2021chimpanzees,jahaga,22.0,f,chimpanzee,3,24,7,pair_45,4,5,1120,640,480,384,4,1,1,810,1.0,0.0
allritz2021chimpanzees,jahaga,22.0,f,chimpanzee,3,29,8,pair_25,2,5,800,896,160,640,2,3,1,726,0.0,0.0
allritz2021chimpanzees,jahaga,22.0,f,chimpanzee,3,41,7,pair_35,3,5,480,128,1120,128,3,2,1,1355,2.0,1.0
allritz2021chimpanzees,jahaga,22.0,f,chimpanzee,3,42,7,pair_12,1,2,160,640,800,128,1,1,1,713,0.0,0.0
allritz2021chimpanzees,jahaga,22.0,f,chimpanzee,3,45,8,pair_24,2,4,480,896,1120,128,2,2,1,1669,1.0,2.0
allritz2021chimpanzees,jahaga,22.0,f,chimpanzee,3,47,8,pair_35,3,5,1120,896,1120,128,3,2,1,978,1.0,0.0
allritz2021chimpanzees,jahaga,22.0,f,chimpanzee,3,52,7,pair_14,1,4,1120,896,800,896,1,3,1,628,0.0,0.0
allritz2021chimpanzees,jahaga,22.0,f,chimpanzee,3,57,8,pair_15,1,5,1120,128,480,384,1,4,1,641,0.0,0.0
allritz2021chimpanzees,jahaga,22.0,f,chimpanzee,3,59,7,pair_23,2,3,1120,640,1120,896,2,1,0,982,0.0,0.0
allritz2021chimpanzees,jahaga,22.0,f,chimpanzee,3,63,9,pair_35,3,5,1120,384,1120,896,3,2,1,893,1.0,1.0
allritz2021chimpanzees,jahaga,22.0,f,chimpanzee,3,64,9,pair_15,1,5,160,896,800,896,1,4,1,802,0.0,0.0
allritz2021chimpanzees,jahaga,22.0,f,chimpanzee,3,65,8,pair_13,1,3,480,128,1120,896,1,2,1,657,0.0,0.0
allritz2021chimpanzees,jahaga,22.0,f,chimpanzee,3,68,8,pair_45,4,5,800,128,480,640,4,1,1,1014,0.0,0.0
allritz2021chimpanzees,jahaga,22.0,f,chimpanzee,3,70,8,pair_14,1,4,800,896,160,384,1,3,1,657,0.0,0.0
allritz2021chimpanzees,jahaga,22.0,f,chimpanzee,3,72,9,pair_24,2,4,800,384,1120,896,2,2,1,1538,2.0,3.0
allritz2021chimpanzees,jahaga,22.0,f,chimpanzee,3,73,8,pair_34,3,4,1120,640,160,128,3,1,1,1353,1.0,2.0
allritz2021chimpanzees,jahaga,22.0,f,chimpanzee,3,78,8,pair_12,1,2,1120,128,480,640,1,1,1,789,0.0,0.0
allritz2021chimpanzees,jahaga,22.0,f,chimpanzee,3,79,9,pair_12,1,2,800,640,160,640,1,1,1,1180,1.0,2.0
allritz2021chimpanzees,jahaga,22.0,f,chimpanzee,3,81,9,pair_45,4,5,160,640,800,640,4,1,1,983,0.0,0.0
allritz2021chimpanzees,jahaga,22.0,f,chimpanzee,3,87,8,pair_23,2,3,160,128,800,896,2,1,1,1681,3.0,3.0
allritz2021chimpanzees,jahaga,22.0,f,chimpanzee,3,90,9,pair_14,1,4,480,640,480,384,1,3,1,605,0.0,0.0
allritz2021chimpanzees,jahaga,22.0,f,chimpanzee,3,92,9,pair_34,3,4,1120,128,160,384,3,1,1,883,0.0,0.0
allritz2021chimpanzees,jahaga,22.0,f,chimpanzee,3,95,9,pair_23,2,3,160,640,1120,896,2,1,0,1955,2.0,2.0
allritz2021chimpanzees,jahaga,22.0,f,chimpanzee,3,96,9,pair_13,1,3,160,128,480,128,1,2,1,729,0.0,0.0
allritz2021chimpanzees,jahaga,22.0,f,chimpanzee,3,99,9,pair_25,2,5,480,896,160,640,2,3,1,846,0.0,0.0
allritz2021chimpanzees,jahaga,22.0,f,chimpanzee,4,1,10,pair_14,1,4,800,128,480,128,1,3,1,493,,
allritz2021chimpanzees,jahaga,22.0,f,chimpanzee,4,3,10,pair_35,3,5,480,640,800,128,3,2,1,967,,
allritz2021chimpanzees,jahaga,22.0,f,chimpanzee,4,5,10,pair_23,2,3,480,384,160,128,2,1,0,1394,,
allritz2021chimpanzees,jahaga,22.0,f,chimpanzee,4,6,10,pair_12,1,2,800,128,1120,640,1,1,1,753,,
allritz2021chimpanzees,jahaga,22.0,f,chimpanzee,4,7,11,pair_12,1,2,800,384,160,896,1,1,1,1075,,
allritz2021chimpanzees,jahaga,22.0,f,chimpanzee,4,9,10,pair_13,1,3,800,640,160,384,1,2,1,831,,
allritz2021chimpanzees,jahaga,22.0,f,chimpanzee,4,10,10,pair_45,4,5,160,128,480,640,4,1,1,1307,,
allritz2021chimpanzees,jahaga,22.0,f,chimpanzee,4,12,10,pair_25,2,5,160,896,1120,128,2,3,1,1686,,
allritz2021chimpanzees,jahaga,22.0,f,chimpanzee,4,16,12,pair_12,1,2,800,128,800,384,1,1,1,1075,,
allritz2021chimpanzees,jahaga,22.0,f,chimpanzee,4,25,11,pair_45,4,5,480,128,1120,128,4,1,1,996,,
allritz2021chimpanzees,jahaga,22.0,f,chimpanzee,4,26,10,pair_24,2,4,1120,640,160,896,2,2,1,799,,
allritz2021chimpanzees,jahaga,22.0,f,chimpanzee,4,32,11,pair_24,2,4,800,128,1120,384,2,2,1,1561,,
allritz2021chimpanzees,jahaga,22.0,f,chimpanzee,4,37,10,pair_15,1,5,480,896,1120,384,1,4,1,855,,
allritz2021chimpanzees,jahaga,22.0,f,chimpanzee,4,42,11,pair_23,2,3,800,896,160,384,2,1,1,1239,,
allritz2021chimpanzees,jahaga,22.0,f,chimpanzee,4,45,10,pair_34,3,4,1120,384,160,896,3,1,1,1224,,
allritz2021chimpanzees,jahaga,22.0,f,chimpanzee,4,47,12,pair_24,2,4,480,384,480,640,2,2,1,586,,
allritz2021chimpanzees,jahaga,22.0,f,chimpanzee,4,51,12,pair_23,2,3,800,640,160,640,2,1,1,1506,,
allritz2021chimpanzees,jahaga,22.0,f,chimpanzee,4,52,11,pair_34,3,4,800,896,1120,384,3,1,1,1044,,
allritz2021chimpanzees,jahaga,22.0,f,chimpanzee,4,58,11,pair_13,1,3,800,384,1120,896,1,2,1,703,,
allritz2021chimpanzees,jahaga,22.0,f,chimpanzee,4,64,11,pair_14,1,4,160,896,800,640,1,3,1,718,,
allritz2021chimpanzees,jahaga,22.0,f,chimpanzee,4,69,11,pair_35,3,5,160,128,800,640,3,2,1,1545,,
allritz2021chimpanzees,jahaga,22.0,f,chimpanzee,4,70,12,pair_14,1,4,480,896,800,384,1,3,1,846,,
allritz2021chimpanzees,jahaga,22.0,f,chimpanzee,4,74,11,pair_25,2,5,480,384,160,640,2,3,1,1060,,
allritz2021chimpanzees,jahaga,22.0,f,chimpanzee,4,78,11,pair_15,1,5,800,384,480,640,1,4,1,511,,
allritz2021chimpanzees,jahaga,22.0,f,chimpanzee,4,86,12,pair_25,2,5,480,640,480,128,2,3,1,1965,,
allritz2021chimpanzees,jahaga,22.0,f,chimpanzee,4,88,12,pair_34,3,4,480,640,1120,640,3,1,1,1819,,
allritz2021chimpanzees,jahaga,22.0,f,chimpanzee,4,89,12,pair_13,1,3,800,640,160,640,1,2,1,1261,,
allritz2021chimpanzees,jahaga,22.0,f,chimpanzee,4,90,12,pair_15,1,5,480,384,800,896,1,4,1,939,,
allritz2021chimpanzees,jahaga,22.0,f,chimpanzee,4,94,12,pair_45,4,5,160,896,800,896,4,1,0,1421,,
allritz2021chimpanzees,jahaga,22.0,f,chimpanzee,4,96,12,pair_35,3,5,160,128,480,384,3,2,1,954,,
allritz2021chimpanzees,jahaga,22.0,f,chimpanzee,5,5,13,pair_35,3,5,1120,384,480,384,3,2,1,820,0.0,0.0
allritz2021chimpanzees,jahaga,22.0,f,chimpanzee,5,8,13,pair_45,4,5,1120,128,160,896,4,1,1,1564,2.0,3.0
allritz2021chimpanzees,jahaga,22.0,f,chimpanzee,5,11,13,pair_34,3,4,1120,128,480,128,3,1,1,730,0.0,0.0
allritz2021chimpanzees,jahaga,22.0,f,chimpanzee,5,13,14,pair_34,3,4,800,384,800,896,3,1,1,789,0.0,0.0
allritz2021chimpanzees,jahaga,22.0,f,chimpanzee,5,14,13,pair_24,2,4,480,640,480,128,2,2,1,1424,1.0,1.0
allritz2021chimpanzees,jahaga,22.0,f,chimpanzee,5,18,13,pair_12,1,2,160,640,800,128,1,1,0,1070,1.0,1.0
allritz2021chimpanzees,jahaga,22.0,f,chimpanzee,5,23,14,pair_24,2,4,160,640,1120,896,2,2,1,946,0.0,1.0
allritz2021chimpanzees,jahaga,22.0,f,chimpanzee,5,31,13,pair_25,2,5,480,640,800,384,2,3,1,923,0.0,0.0
allritz2021chimpanzees,jahaga,22.0,f,chimpanzee,5,35,13,pair_14,1,4,480,128,800,384,1,3,0,424,0.0,0.0
allritz2021chimpanzees,jahaga,22.0,f,chimpanzee,5,37,13,pair_13,1,3,480,640,480,128,1,2,1,672,0.0,0.0
allritz2021chimpanzees,jahaga,22.0,f,chimpanzee,5,43,14,pair_25,2,5,480,896,1120,128,2,3,1,1151,0.0,1.0
allritz2021chimpanzees,jahaga,22.0,f,chimpanzee,5,46,14,pair_45,4,5,160,384,480,896,4,1,1,1454,2.0,2.0
allritz2021chimpanzees,jahaga,22.0,f,chimpanzee,5,48,14,pair_12,1,2,480,640,480,896,1,1,1,713,0.0,1.0
allritz2021chimpanzees,jahaga,22.0,f,chimpanzee,5,52,14,pair_35,3,5,160,896,480,128,3,2,1,1722,0.0,1.0
allritz2021chimpanzees,jahaga,22.0,f,chimpanzee,5,54,15,pair_34,3,4,800,640,480,384,3,1,1,793,0.0,0.0
allritz2021chimpanzees,jahaga,22.0,f,chimpanzee,5,55,15,pair_24,2,4,160,896,480,128,2,2,1,1392,1.0,2.0
allritz2021chimpanzees,jahaga,22.0,f,chimpanzee,5,57,13,pair_23,2,3,800,128,480,640,2,1,1,1702,1.0,1.0
allritz2021chimpanzees,jahaga,22.0,f,chimpanzee,5,58,15,pair_45,4,5,800,640,160,640,4,1,1,1004,0.0,0.0
allritz2021chimpanzees,jahaga,22.0,f,chimpanzee,5,61,14,pair_23,2,3,480,640,160,640,2,1,1,1884,2.0,2.0
allritz2021chimpanzees,jahaga,22.0,f,chimpanzee,5,62,13,pair_15,1,5,1120,640,480,640,1,4,1,766,0.0,0.0
allritz2021chimpanzees,jahaga,22.0,f,chimpanzee,5,71,15,pair_25,2,5,480,640,800,384,2,3,1,725,0.0,0.0
allritz2021chimpanzees,jahaga,22.0,f,chimpanzee,5,73,15,pair_23,2,3,480,128,480,640,2,1,0,1295,1.0,1.0
allritz2021chimpanzees,jahaga,22.0,f,chimpanzee,5,80,14,pair_13,1,3,480,896,800,896,1,2,0,966,1.0,0.0
allritz2021chimpanzees,jahaga,22.0,f,chimpanzee,5,83,15,pair_12,1,2,800,896,160,896,1,1,1,707,0.0,0.0
allritz2021chimpanzees,jahaga,22.0,f,chimpanzee,5,86,15,pair_13,1,3,800,896,800,128,1,2,1,676,0.0,0.0
allritz2021chimpanzees,jahaga,22.0,f,chimpanzee,5,90,14,pair_15,1,5,480,896,1120,896,1,4,1,742,0.0,0.0
allritz2021chimpanzees,jahaga,22.0,f,chimpanzee,5,92,14,pair_14,1,4,160,384,480,640,1,3,1,689,0.0,0.0
allritz2021chimpanzees,jahaga,22.0,f,chimpanzee,5,95,15,pair_14,1,4,1120,384,1120,896,1,3,1,562,0.0,0.0
allritz2021chimpanzees,jahaga,22.0,f,chimpanzee,5,96,15,pair_15,1,5,160,128,160,640,1,4,1,1470,0.0,1.0
allritz2021chimpanzees,jahaga,22.0,f,chimpanzee,5,98,15,pair_35,3,5,160,128,480,640,3,2,1,829,0.0,0.0
allritz2021chimpanzees,jahaga,22.0,f,chimpanzee,6,1,16,pair_34,3,4,1120,128,1120,384,3,1,1,1403,2.0,2.0
allritz2021chimpanzees,jahaga,22.0,f,chimpanzee,6,5,16,pair_14,1,4,1120,896,800,896,1,3,1,679,0.0,0.0
allritz2021chimpanzees,jahaga,22.0,f,chimpanzee,6,6,16,pair_25,2,5,1120,128,480,896,2,3,1,1397,1.0,2.0
allritz2021chimpanzees,jahaga,22.0,f,chimpanzee,6,7,16,pair_13,1,3,480,640,480,896,1,2,1,597,0.0,0.0
allritz2021chimpanzees,jahaga,22.0,f,chimpanzee,6,8,16,pair_35,3,5,480,896,160,640,3,2,1,1581,1.0,2.0
allritz2021chimpanzees,jahaga,22.0,f,chimpanzee,6,11,16,pair_15,1,5,800,384,480,896,1,4,1,545,0.0,0.0
allritz2021chimpanzees,jahaga,22.0,f,chimpanzee,6,13,17,pair_15,1,5,800,128,480,896,1,4,1,702,0.0,0.0
allritz2021chimpanzees,jahaga,22.0,f,chimpanzee,6,19,16,pair_12,1,2,480,128,1120,896,1,1,1,686,0.0,0.0
allritz2021chimpanzees,jahaga,22.0,f,chimpanzee,6,25,16,pair_23,2,3,1120,896,800,128,2,1,1,1351,1.0,2.0
allritz2021chimpanzees,jahaga,22.0,f,chimpanzee,6,30,17,pair_35,3,5,1120,128,800,896,3,2,1,766,0.0,0.0
allritz2021chimpanzees,jahaga,22.0,f,chimpanzee,6,35,17,pair_13,1,3,160,384,1120,640,1,2,1,637,0.0,0.0
allritz2021chimpanzees,jahaga,22.0,f,chimpanzee,6,36,17,pair_34,3,4,480,384,800,640,3,1,1,977,1.0,1.0
allritz2021chimpanzees,jahaga,22.0,f,chimpanzee,6,37,17,pair_25,2,5,480,384,1120,640,2,3,1,1061,0.0,0.0
allritz2021chimpanzees,jahaga,22.0,f,chimpanzee,6,40,16,pair_45,4,5,160,128,480,640,4,1,1,1163,0.0,2.0
allritz2021chimpanzees,jahaga,22.0,f,chimpanzee,6,43,17,pair_12,1,2,160,128,1120,640,1,1,0,1171,1.0,1.0
allritz2021chimpanzees,jahaga,22.0,f,chimpanzee,6,44,17,pair_23,2,3,480,640,480,384,2,1,0,806,0.0,0.0
allritz2021chimpanzees,jahaga,22.0,f,chimpanzee,6,47,17,pair_14,1,4,1120,384,480,640,1,3,1,583,0.0,0.0
allritz2021chimpanzees,jahaga,22.0,f,chimpanzee,6,50,17,pair_45,4,5,480,128,1120,640,4,1,1,1108,0.0,1.0
allritz2021chimpanzees,jahaga,22.0,f,chimpanzee,6,61,18,pair_14,1,4,800,896,1120,896,1,3,1,808,1.0,0.0
allritz2021chimpanzees,jahaga,22.0,f,chimpanzee,6,63,18,pair_34,3,4,1120,640,160,128,3,1,1,858,0.0,0.0
allritz2021chimpanzees,jahaga,22.0,f,chimpanzee,6,67,18,pair_15,1,5,160,896,480,896,1,4,1,806,0.0,0.0
allritz2021chimpanzees,jahaga,22.0,f,chimpanzee,6,70,18,pair_25,2,5,480,128,1120,640,2,3,1,661,0.0,0.0
allritz2021chimpanzees,jahaga,22.0,f,chimpanzee,6,75,16,pair_24,2,4,1120,640,160,384,2,2,1,1594,2.0,2.0
allritz2021chimpanzees,jahaga,22.0,f,chimpanzee,6,79,18,pair_13,1,3,800,128,480,896,1,2,1,561,0.0,0.0
allritz2021chimpanzees,jahaga,22.0,f,chimpanzee,6,82,17,pair_24,2,4,1120,896,160,896,2,2,1,660,0.0,0.0
allritz2021chimpanzees,jahaga,22.0,f,chimpanzee,6,86,18,pair_45,4,5,1120,896,160,896,4,1,1,1075,1.0,1.0
allritz2021chimpanzees,jahaga,22.0,f,chimpanzee,6,92,18,pair_23,2,3,480,128,1120,896,2,1,0,902,0.0,0.0
allritz2021chimpanzees,jahaga,22.0,f,chimpanzee,6,93,18,pair_24,2,4,800,128,800,640,2,2,1,1521,1.0,1.0
allritz2021chimpanzees,jahaga,22.0,f,chimpanzee,6,94,18,pair_12,1,2,800,896,800,384,1,1,0,739,0.0,0.0
allritz2021chimpanzees,jahaga,22.0,f,chimpanzee,6,98,18,pair_35,3,5,480,896,160,128,3,2,1,906,1.0,1.0
allritz2021chimpanzees,jahaga,22.0,f,chimpanzee,7,1,19,pair_24,2,4,480,128,160,384,2,2,1,629,0.0,
allritz2021chimpanzees,jahaga,22.0,f,chimpanzee,7,4,19,pair_35,3,5,1120,640,800,128,3,2,1,848,0.0,
allritz2021chimpanzees,jahaga,22.0,f,chimpanzee,7,5,20,pair_24,2,4,1120,384,800,896,2,2,1,592,0.0,
allritz2021chimpanzees,jahaga,22.0,f,chimpanzee,7,8,19,pair_23,2,3,800,384,800,128,2,1,0,1280,1.0,
allritz2021chimpanzees,jahaga,22.0,f,chimpanzee,7,11,19,pair_25,2,5,800,128,1120,640,2,3,1,1092,0.0,
allritz2021chimpanzees,jahaga,22.0,f,chimpanzee,7,12,19,pair_13,1,3,1120,896,1120,640,1,2,1,634,0.0,
allritz2021chimpanzees,jahaga,22.0,f,chimpanzee,7,14,19,pair_15,1,5,160,128,800,384,1,4,1,667,0.0,
allritz2021chimpanzees,jahaga,22.0,f,chimpanzee,7,18,20,pair_23,2,3,800,896,1120,640,2,1,0,840,0.0,
allritz2021chimpanzees,jahaga,22.0,f,chimpanzee,7,23,19,pair_34,3,4,480,896,800,128,3,1,1,945,1.0,
allritz2021chimpanzees,jahaga,22.0,f,chimpanzee,7,25,19,pair_14,1,4,160,640,800,640,1,3,1,585,0.0,
allritz2021chimpanzees,jahaga,22.0,f,chimpanzee,7,28,20,pair_14,1,4,800,384,1120,896,1,3,1,1293,0.0,
allritz2021chimpanzees,jahaga,22.0,f,chimpanzee,7,29,20,pair_34,3,4,480,896,800,128,3,1,1,850,1.0,
allritz2021chimpanzees,jahaga,22.0,f,chimpanzee,7,33,21,pair_14,1,4,160,896,1120,384,1,3,1,1777,0.0,
allritz2021chimpanzees,jahaga,22.0,f,chimpanzee,7,38,21,pair_34,3,4,160,640,480,640,3,1,1,807,0.0,
allritz2021chimpanzees,jahaga,22.0,f,chimpanzee,7,41,19,pair_12,1,2,160,384,1120,384,1,1,1,654,0.0,
allritz2021chimpanzees,jahaga,22.0,f,chimpanzee,7,44,20,pair_13,1,3,1120,384,160,640,1,2,1,647,0.0,
allritz2021chimpanzees,jahaga,22.0,f,chimpanzee,7,46,19,pair_45,4,5,1120,896,1120,128,4,1,1,1225,0.0,
allritz2021chimpanzees,jahaga,22.0,f,chimpanzee,7,47,21,pair_24,2,4,1120,128,160,640,2,2,1,1013,1.0,
allritz2021chimpanzees,jahaga,22.0,f,chimpanzee,7,48,20,pair_15,1,5,1120,384,800,128,1,4,1,612,0.0,
allritz2021chimpanzees,jahaga,22.0,f,chimpanzee,7,54,21,pair_13,1,3,480,384,480,128,1,2,1,595,0.0,
allritz2021chimpanzees,jahaga,22.0,f,chimpanzee,7,58,20,pair_35,3,5,160,384,480,640,3,2,1,766,0.0,
allritz2021chimpanzees,jahaga,22.0,f,chimpanzee,7,60,20,pair_45,4,5,160,640,480,128,4,1,1,827,0.0,
allritz2021chimpanzees,jahaga,22.0,f,chimpanzee,7,65,21,pair_35,3,5,160,640,480,128,3,2,1,753,0.0,
allritz2021chimpanzees,jahaga,22.0,f,chimpanzee,7,78,20,pair_25,2,5,480,640,160,384,2,3,1,775,0.0,
allritz2021chimpanzees,jahaga,22.0,f,chimpanzee,7,83,20,pair_12,1,2,160,640,800,640,1,1,1,850,1.0,
allritz2021chimpanzees,jahaga,22.0,f,chimpanzee,7,86,21,pair_12,1,2,480,384,1120,640,1,1,0,1791,1.0,
allritz2021chimpanzees,jahaga,22.0,f,chimpanzee,7,92,21,pair_45,4,5,480,128,1120,384,4,1,1,1004,0.0,
allritz2021chimpanzees,jahaga,22.0,f,chimpanzee,7,95,21,pair_15,1,5,480,640,800,640,1,4,1,572,0.0,
allritz2021chimpanzees,jahaga,22.0,f,chimpanzee,7,96,21,pair_25,2,5,480,128,480,384,2,3,1,703,0.0,
allritz2021chimpanzees,jahaga,22.0,f,chimpanzee,7,97,21,pair_23,2,3,1120,384,1120,640,2,1,1,665,0.0,
allritz2021chimpanzees,jahaga,22.0,f,chimpanzee,8,1,22,pair_45,4,5,160,128,800,640,4,1,1,2872,0.0,
allritz2021chimpanzees,jahaga,22.0,f,chimpanzee,8,3,22,pair_24,2,4,1120,640,160,896,2,2,1,947,1.0,
allritz2021chimpanzees,jahaga,22.0,f,chimpanzee,8,7,22,pair_15,1,5,480,896,160,640,1,4,1,646,0.0,
allritz2021chimpanzees,jahaga,22.0,f,chimpanzee,8,9,22,pair_25,2,5,1120,128,160,128,2,3,1,894,1.0,
allritz2021chimpanzees,jahaga,22.0,f,chimpanzee,8,10,22,pair_34,3,4,800,384,800,640,3,1,1,897,1.0,
allritz2021chimpanzees,jahaga,22.0,f,chimpanzee,8,11,23,pair_15,1,5,480,384,1120,384,1,4,1,1808,0.0,
allritz2021chimpanzees,jahaga,22.0,f,chimpanzee,8,12,22,pair_13,1,3,1120,384,800,640,1,2,1,646,0.0,
allritz2021chimpanzees,jahaga,22.0,f,chimpanzee,8,13,22,pair_23,2,3,800,384,1120,896,2,1,0,1331,1.0,
allritz2021chimpanzees,jahaga,22.0,f,chimpanzee,8,14,22,pair_35,3,5,160,128,1120,128,3,2,1,945,0.0,
allritz2021chimpanzees,jahaga,22.0,f,chimpanzee,8,21,23,pair_23,2,3,1120,384,800,384,2,1,1,652,0.0,
allritz2021chimpanzees,jahaga,22.0,f,chimpanzee,8,24,22,pair_14,1,4,800,896,1120,640,1,3,1,576,0.0,
allritz2021chimpanzees,jahaga,22.0,f,chimpanzee,8,28,23,pair_14,1,4,1120,128,800,896,1,3,1,593,0.0,
allritz2021chimpanzees,jahaga,22.0,f,chimpanzee,8,30,23,pair_34,3,4,1120,640,800,384,3,1,1,637,0.0,
allritz2021chimpanzees,jahaga,22.0,f,chimpanzee,8,33,24,pair_34,3,4,1120,128,800,128,3,1,1,1115,0.0,
allritz2021chimpanzees,jahaga,22.0,f,chimpanzee,8,38,23,pair_35,3,5,1120,640,480,128,3,2,1,1075,0.0,
allritz2021chimpanzees,jahaga,22.0,f,chimpanzee,8,43,24,pair_23,2,3,800,128,1120,384,2,1,0,744,0.0,
allritz2021chimpanzees,jahaga,22.0,f,chimpanzee,8,48,23,pair_24,2,4,480,640,480,384,2,2,1,891,0.0,
allritz2021chimpanzees,jahaga,22.0,f,chimpanzee,8,49,23,pair_13,1,3,800,128,800,640,1,2,1,1357,0.0,
allritz2021chimpanzees,jahaga,22.0,f,chimpanzee,8,52,23,pair_45,4,5,480,640,160,128,4,1,1,806,0.0,
allritz2021chimpanzees,jahaga,22.0,f,chimpanzee,8,56,23,pair_25,2,5,160,128,480,384,2,3,1,662,0.0,
allritz2021chimpanzees,jahaga,22.0,f,chimpanzee,8,57,24,pair_15,1,5,480,896,800,896,1,4,1,699,0.0,
allritz2021chimpanzees,jahaga,22.0,f,chimpanzee,8,70,24,pair_13,1,3,160,896,480,640,1,2,1,621,0.0,
allritz2021chimpanzees,jahaga,22.0,f,chimpanzee,8,81,24,pair_14,1,4,800,384,480,128,1,3,1,496,0.0,
allritz2021chimpanzees,jahaga,22.0,f,chimpanzee,8,84,24,pair_35,3,5,1120,384,800,384,3,2,1,684,0.0,
allritz2021chimpanzees,jahaga,22.0,f,chimpanzee,8,90,24,pair_45,4,5,1120,128,480,640,4,1,1,1246,0.0,
allritz2021chimpanzees,jahaga,22.0,f,chimpanzee,8,91,22,pair_12,1,2,480,128,1120,384,1,1,0,814,1.0,
allritz2021chimpanzees,jahaga,22.0,f,chimpanzee,8,94,23,pair_12,1,2,160,128,480,640,1,1,1,646,0.0,
allritz2021chimpanzees,jahaga,22.0,f,chimpanzee,8,95,24,pair_24,2,4,800,640,160,128,2,2,1,914,0.0,
allritz2021chimpanzees,jahaga,22.0,f,chimpanzee,8,96,24,pair_25,2,5,800,384,1120,896,2,3,1,853,0.0,
allritz2021chimpanzees,jahaga,22.0,f,chimpanzee,8,97,24,pair_12,1,2,480,896,1120,128,1,1,1,895,0.0,
allritz2021chimpanzees,kofi,9.0,m,chimpanzee,1,1,1,pair_24,2,4,800,128,800,384,2,2,1,825,0.0,0.0
allritz2021chimpanzees,kofi,9.0,m,chimpanzee,1,8,1,pair_15,1,5,480,896,160,896,1,4,1,707,0.0,1.0
allritz2021chimpanzees,kofi,9.0,m,chimpanzee,1,11,1,pair_35,3,5,1120,384,160,384,3,2,1,1627,1.0,1.0
allritz2021chimpanzees,kofi,9.0,m,chimpanzee,1,12,1,pair_14,1,4,480,896,800,384,1,3,1,666,0.0,0.0
allritz2021chimpanzees,kofi,9.0,m,chimpanzee,1,15,2,pair_24,2,4,480,384,1120,128,2,2,1,2059,2.0,3.0
allritz2021chimpanzees,kofi,9.0,m,chimpanzee,1,16,1,pair_23,2,3,800,896,800,128,2,1,1,1236,1.0,1.0
allritz2021chimpanzees,kofi,9.0,m,chimpanzee,1,23,1,pair_25,2,5,160,640,800,384,2,3,1,1714,0.0,0.0
allritz2021chimpanzees,kofi,9.0,m,chimpanzee,1,30,2,pair_15,1,5,480,384,480,896,1,4,1,738,0.0,0.0
allritz2021chimpanzees,kofi,9.0,m,chimpanzee,1,32,2,pair_25,2,5,480,896,160,384,2,3,1,1102,0.0,0.0
allritz2021chimpanzees,kofi,9.0,m,chimpanzee,1,34,3,pair_24,2,4,160,384,800,128,2,2,1,1594,1.0,2.0
allritz2021chimpanzees,kofi,9.0,m,chimpanzee,1,35,1,pair_13,1,3,480,128,160,640,1,2,1,944,0.0,0.0
allritz2021chimpanzees,kofi,9.0,m,chimpanzee,1,37,1,pair_45,4,5,800,896,1120,128,4,1,1,2591,3.0,1.0
allritz2021chimpanzees,kofi,9.0,m,chimpanzee,1,52,2,pair_23,2,3,160,640,480,896,2,1,1,1770,2.0,2.0
allritz2021chimpanzees,kofi,9.0,m,chimpanzee,1,60,2,pair_14,1,4,480,640,800,384,1,3,1,553,0.0,0.0
allritz2021chimpanzees,kofi,9.0,m,chimpanzee,1,61,3,pair_15,1,5,1120,384,800,128,1,4,1,720,0.0,0.0
allritz2021chimpanzees,kofi,9.0,m,chimpanzee,1,66,2,pair_45,4,5,800,640,480,896,4,1,1,1639,0.0,0.0
allritz2021chimpanzees,kofi,9.0,m,chimpanzee,1,69,1,pair_12,1,2,1120,128,800,384,1,1,1,845,0.0,1.0
allritz2021chimpanzees,kofi,9.0,m,chimpanzee,1,70,1,pair_34,3,4,800,640,480,640,3,1,1,1278,1.0,0.0
allritz2021chimpanzees,kofi,9.0,m,chimpanzee,1,74,2,pair_34,3,4,1120,384,800,896,3,1,1,1404,1.0,1.0
allritz2021chimpanzees,kofi,9.0,m,chimpanzee,1,75,3,pair_23,2,3,160,384,800,640,2,1,1,1240,1.0,0.0
allritz2021chimpanzees,kofi,9.0,m,chimpanzee,1,79,2,pair_13,1,3,1120,896,480,128,1,2,1,1081,1.0,1.0
allritz2021chimpanzees,kofi,9.0,m,chimpanzee,1,80,2,pair_35,3,5,480,128,160,896,3,2,1,2660,1.0,2.0
allritz2021chimpanzees,kofi,9.0,m,chimpanzee,1,85,3,pair_45,4,5,800,384,480,640,4,1,1,1631,2.0,2.0
allritz2021chimpanzees,kofi,9.0,m,chimpanzee,1,86,2,pair_12,1,2,480,128,480,640,1,1,1,847,0.0,0.0
allritz2021chimpanzees,kofi,9.0,m,chimpanzee,1,88,3,pair_14,1,4,1120,896,480,384,1,3,1,749,0.0,0.0
allritz2021chimpanzees,kofi,9.0,m,chimpanzee,1,90,3,pair_12,1,2,480,640,800,128,1,1,1,634,0.0,0.0
allritz2021chimpanzees,kofi,9.0,m,chimpanzee,1,91,3,pair_13,1,3,800,640,800,384,1,2,1,668,0.0,0.0
allritz2021chimpanzees,kofi,9.0,m,chimpanzee,1,94,3,pair_34,3,4,480,384,800,128,3,1,1,2108,2.0,2.0
allritz2021chimpanzees,kofi,9.0,m,chimpanzee,1,95,3,pair_35,3,5,800,896,480,384,3,2,1,1741,0.0,0.0
allritz2021chimpanzees,kofi,9.0,m,chimpanzee,1,96,3,pair_25,2,5,480,384,160,128,2,3,1,1564,0.0,0.0
allritz2021chimpanzees,kofi,9.0,m,chimpanzee,2,2,4,pair_45,4,5,480,896,800,896,4,1,1,1749,0.0,
allritz2021chimpanzees,kofi,9.0,m,chimpanzee,2,3,4,pair_23,2,3,480,384,160,896,2,1,1,1080,1.0,
allritz2021chimpanzees,kofi,9.0,m,chimpanzee,2,4,4,pair_25,2,5,1120,384,1120,128,2,3,1,866,0.0,
allritz2021chimpanzees,kofi,9.0,m,chimpanzee,2,14,5,pair_25,2,5,480,128,1120,896,2,3,1,1457,1.0,
allritz2021chimpanzees,kofi,9.0,m,chimpanzee,2,17,5,pair_23,2,3,480,128,800,640,2,1,1,1410,1.0,
allritz2021chimpanzees,kofi,9.0,m,chimpanzee,2,23,4,pair_35,3,5,160,384,1120,896,3,2,1,1739,0.0,
allritz2021chimpanzees,kofi,9.0,m,chimpanzee,2,29,4,pair_24,2,4,160,896,480,640,2,2,1,1075,0.0,
allritz2021chimpanzees,kofi,9.0,m,chimpanzee,2,30,6,pair_25,2,5,480,384,800,640,2,3,1,1596,1.0,
allritz2021chimpanzees,kofi,9.0,m,chimpanzee,2,35,4,pair_34,3,4,1120,896,800,896,3,1,1,1743,1.0,
allritz2021chimpanzees,kofi,9.0,m,chimpanzee,2,36,5,pair_24,2,4,480,640,800,640,2,2,1,1257,0.0,
allritz2021chimpanzees,kofi,9.0,m,chimpanzee,2,40,4,pair_13,1,3,480,384,1120,384,1,2,1,846,0.0,
allritz2021chimpanzees,kofi,9.0,m,chimpanzee,2,41,4,pair_12,1,2,160,128,800,384,1,1,1,937,0.0,
allritz2021chimpanzees,kofi,9.0,m,chimpanzee,2,43,5,pair_12,1,2,800,128,1120,128,1,1,1,829,0.0,
allritz2021chimpanzees,kofi,9.0,m,chimpanzee,2,47,5,pair_45,4,5,480,896,160,384,4,1,1,2364,2.0,
allritz2021chimpanzees,kofi,9.0,m,chimpanzee,2,48,6,pair_12,1,2,160,384,800,384,1,1,1,830,0.0,
allritz2021chimpanzees,kofi,9.0,m,chimpanzee,2,53,5,pair_34,3,4,480,128,1120,384,3,1,0,1664,1.0,
allritz2021chimpanzees,kofi,9.0,m,chimpanzee,2,55,4,pair_14,1,4,800,128,1120,640,1,3,1,856,0.0,
allritz2021chimpanzees,kofi,9.0,m,chimpanzee,2,57,6,pair_24,2,4,480,896,160,640,2,2,1,1580,0.0,
allritz2021chimpanzees,kofi,9.0,m,chimpanzee,2,62,5,pair_35,3,5,480,384,480,896,3,2,1,2245,0.0,
allritz2021chimpanzees,kofi,9.0,m,chimpanzee,2,66,5,pair_14,1,4,800,384,160,384,1,3,1,816,0.0,
allritz2021chimpanzees,kofi,9.0,m,chimpanzee,2,74,6,pair_14,1,4,480,896,1120,896,1,3,1,713,0.0,
allritz2021chimpanzees,kofi,9.0,m,chimpanzee,2,75,4,pair_15,1,5,480,384,160,896,1,4,1,1005,0.0,
allritz2021chimpanzees,kofi,9.0,m,chimpanzee,2,77,6,pair_23,2,3,160,384,160,128,2,1,1,1371,1.0,
allritz2021chimpanzees,kofi,9.0,m,chimpanzee,2,81,5,pair_15,1,5,160,640,1120,896,1,4,1,1062,0.0,
allritz2021chimpanzees,kofi,9.0,m,chimpanzee,2,82,5,pair_13,1,3,1120,896,800,384,1,2,1,993,1.0,
allritz2021chimpanzees,kofi,9.0,m,chimpanzee,2,84,6,pair_35,3,5,800,640,1120,128,3,2,1,1802,2.0,
allritz2021chimpanzees,kofi,9.0,m,chimpanzee,2,85,6,pair_45,4,5,1120,640,480,128,4,1,1,1443,1.0,
allritz2021chimpanzees,kofi,9.0,m,chimpanzee,2,87,6,pair_13,1,3,480,896,160,640,1,2,1,863,0.0,
allritz2021chimpanzees,kofi,9.0,m,chimpanzee,2,91,6,pair_15,1,5,160,896,480,640,1,4,1,895,0.0,
allritz2021chimpanzees,kofi,9.0,m,chimpanzee,2,94,6,pair_34,3,4,160,896,480,384,3,1,1,1394,2.0,
allritz2021chimpanzees,kofi,9.0,m,chimpanzee,3,5,7,pair_13,1,3,1120,384,800,896,1,2,1,764,0.0,
allritz2021chimpanzees,kofi,9.0,m,chimpanzee,3,6,7,pair_45,4,5,1120,640,1120,384,4,1,1,1836,2.0,
allritz2021chimpanzees,kofi,9.0,m,chimpanzee,3,7,8,pair_13,1,3,800,384,1120,384,1,2,1,699,0.0,
allritz2021chimpanzees,kofi,9.0,m,chimpanzee,3,14,7,pair_12,1,2,800,384,1120,128,1,1,1,703,0.0,
allritz2021chimpanzees,kofi,9.0,m,chimpanzee,3,17,8,pair_12,1,2,800,640,480,896,1,1,1,634,0.0,
allritz2021chimpanzees,kofi,9.0,m,chimpanzee,3,20,7,pair_34,3,4,480,128,800,640,3,1,1,1863,3.0,
allritz2021chimpanzees,kofi,9.0,m,chimpanzee,3,23,9,pair_12,1,2,480,128,1120,384,1,1,1,738,0.0,
allritz2021chimpanzees,kofi,9.0,m,chimpanzee,3,24,7,pair_24,2,4,1120,640,160,640,2,2,1,1508,1.0,
allritz2021chimpanzees,kofi,9.0,m,chimpanzee,3,28,8,pair_34,3,4,1120,896,480,384,3,1,1,2698,4.0,
allritz2021chimpanzees,kofi,9.0,m,chimpanzee,3,30,9,pair_34,3,4,480,384,800,896,3,1,1,1255,1.0,
allritz2021chimpanzees,kofi,9.0,m,chimpanzee,3,32,7,pair_25,2,5,480,896,480,128,2,3,1,1012,0.0,
allritz2021chimpanzees,kofi,9.0,m,chimpanzee,3,34,8,pair_24,2,4,1120,384,480,128,2,2,1,733,0.0,
allritz2021chimpanzees,kofi,9.0,m,chimpanzee,3,37,8,pair_25,2,5,1120,128,1120,384,2,3,1,844,0.0,
allritz2021chimpanzees,kofi,9.0,m,chimpanzee,3,42,8,pair_45,4,5,800,896,160,384,4,1,1,1600,2.0,
allritz2021chimpanzees,kofi,9.0,m,chimpanzee,3,47,7,pair_15,1,5,160,896,160,640,1,4,1,695,0.0,
allritz2021chimpanzees,kofi,9.0,m,chimpanzee,3,49,9,pair_25,2,5,480,640,800,384,2,3,1,1264,0.0,
allritz2021chimpanzees,kofi,9.0,m,chimpanzee,3,50,9,pair_45,4,5,800,896,800,640,4,1,1,2077,2.0,
allritz2021chimpanzees,kofi,9.0,m,chimpanzee,3,51,9,pair_24,2,4,1120,128,480,896,2,2,1,921,0.0,
allritz2021chimpanzees,kofi,9.0,m,chimpanzee,3,57,7,pair_23,2,3,480,640,1120,640,2,1,1,680,0.0,
allritz2021chimpanzees,kofi,9.0,m,chimpanzee,3,60,7,pair_35,3,5,480,384,480,896,3,2,1,1283,0.0,
allritz2021chimpanzees,kofi,9.0,m,chimpanzee,3,61,8,pair_23,2,3,1120,640,800,128,2,1,1,1567,1.0,
allritz2021chimpanzees,kofi,9.0,m,chimpanzee,3,74,7,pair_14,1,4,800,384,480,128,1,3,1,729,0.0,
allritz2021chimpanzees,kofi,9.0,m,chimpanzee,3,76,9,pair_23,2,3,480,896,1120,896,2,1,1,631,0.0,
allritz2021chimpanzees,kofi,9.0,m,chimpanzee,3,78,8,pair_15,1,5,1120,384,480,640,1,4,1,925,0.0,
allritz2021chimpanzees,kofi,9.0,m,chimpanzee,3,80,8,pair_14,1,4,480,640,1120,640,1,3,1,624,0.0,
allritz2021chimpanzees,kofi,9.0,m,chimpanzee,3,85,9,pair_15,1,5,1120,128,800,640,1,4,1,712,0.0,
allritz2021chimpanzees,kofi,9.0,m,chimpanzee,3,87,8,pair_35,3,5,800,384,800,640,3,2,1,1317,1.0,
allritz2021chimpanzees,kofi,9.0,m,chimpanzee,3,90,9,pair_14,1,4,1120,640,480,896,1,3,1,748,0.0,
allritz2021chimpanzees,kofi,9.0,m,chimpanzee,3,91,9,pair_35,3,5,160,640,800,384,3,2,1,2265,3.0,
allritz2021chimpanzees,kofi,9.0,m,chimpanzee,3,93,9,pair_13,1,3,160,128,800,128,1,2,1,860,0.0,
allritz2021chimpanzees,kofi,9.0,m,chimpanzee,4,2,10,pair_12,1,2,800,896,480,640,1,1,1,1491,0.0,
allritz2021chimpanzees,kofi,9.0,m,chimpanzee,4,3,10,pair_25,2,5,160,128,1120,640,2,3,1,1538,1.0,
allritz2021chimpanzees,kofi,9.0,m,chimpanzee,4,5,10,pair_14,1,4,800,896,160,640,1,3,1,674,0.0,
allritz2021chimpanzees,kofi,9.0,m,chimpanzee,4,9,10,pair_45,4,5,480,896,800,128,4,1,1,1629,2.0,
allritz2021chimpanzees,kofi,9.0,m,chimpanzee,4,16,10,pair_15,1,5,160,896,1120,640,1,4,1,643,0.0,
allritz2021chimpanzees,kofi,9.0,m,chimpanzee,4,17,10,pair_35,3,5,160,128,1120,384,3,2,1,1462,0.0,
allritz2021chimpanzees,kofi,9.0,m,chimpanzee,4,19,10,pair_24,2,4,1120,640,800,896,2,2,1,1452,1.0,
allritz2021chimpanzees,kofi,9.0,m,chimpanzee,4,23,11,pair_12,1,2,160,640,800,128,1,1,1,601,0.0,
allritz2021chimpanzees,kofi,9.0,m,chimpanzee,4,30,11,pair_25,2,5,480,128,800,128,2,3,1,790,0.0,
allritz2021chimpanzees,kofi,9.0,m,chimpanzee,4,35,11,pair_15,1,5,160,640,800,640,1,4,1,516,0.0,
allritz2021chimpanzees,kofi,9.0,m,chimpanzee,4,45,11,pair_24,2,4,160,896,1120,384,2,2,1,1186,0.0,
allritz2021chimpanzees,kofi,9.0,m,chimpanzee,4,57,10,pair_23,2,3,800,128,800,640,2,1,1,1653,1.0,
allritz2021chimpanzees,kofi,9.0,m,chimpanzee,4,60,11,pair_14,1,4,1120,384,800,128,1,3,0,960,0.0,
allritz2021chimpanzees,kofi,9.0,m,chimpanzee,4,64,11,pair_45,4,5,800,896,160,128,4,1,1,2581,4.0,
allritz2021chimpanzees,kofi,9.0,m,chimpanzee,4,66,12,pair_24,2,4,800,640,480,384,2,2,1,1071,0.0,
allritz2021chimpanzees,kofi,9.0,m,chimpanzee,4,67,12,pair_45,4,5,1120,128,800,640,4,1,1,1693,1.0,
allritz2021chimpanzees,kofi,9.0,m,chimpanzee,4,68,11,pair_23,2,3,1120,640,160,384,2,1,1,1104,0.0,
allritz2021chimpanzees,kofi,9.0,m,chimpanzee,4,72,12,pair_23,2,3,480,640,1120,640,2,1,1,547,0.0,
allritz2021chimpanzees,kofi,9.0,m,chimpanzee,4,73,12,pair_25,2,5,480,640,480,384,2,3,1,917,0.0,
allritz2021chimpanzees,kofi,9.0,m,chimpanzee,4,75,12,pair_12,1,2,800,896,160,640,1,1,1,740,0.0,
allritz2021chimpanzees,kofi,9.0,m,chimpanzee,4,77,10,pair_13,1,3,1120,128,800,896,1,2,1,853,0.0,
allritz2021chimpanzees,kofi,9.0,m,chimpanzee,4,79,12,pair_14,1,4,800,384,480,640,1,3,1,634,0.0,
allritz2021chimpanzees,kofi,9.0,m,chimpanzee,4,82,11,pair_13,1,3,1120,384,160,896,1,2,1,681,0.0,
allritz2021chimpanzees,kofi,9.0,m,chimpanzee,4,83,11,pair_35,3,5,800,640,160,384,3,2,1,1082,0.0,
allritz2021chimpanzees,kofi,9.0,m,chimpanzee,4,84,10,pair_34,3,4,1120,384,800,384,3,1,1,1130,1.0,
allritz2021chimpanzees,kofi,9.0,m,chimpanzee,4,86,12,pair_13,1,3,480,896,160,640,1,2,1,672,0.0,
allritz2021chimpanzees,kofi,9.0,m,chimpanzee,4,89,11,pair_34,3,4,800,640,800,384,3,1,1,1039,0.0,
allritz2021chimpanzees,kofi,9.0,m,chimpanzee,4,93,12,pair_35,3,5,160,640,1120,896,3,2,1,1510,0.0,
allritz2021chimpanzees,kofi,9.0,m,chimpanzee,4,94,12,pair_34,3,4,800,896,480,384,3,1,1,1344,1.0,
allritz2021chimpanzees,kofi,9.0,m,chimpanzee,4,96,12,pair_15,1,5,160,640,160,384,1,4,1,704,0.0,
allritz2021chimpanzees,kofi,9.0,m,chimpanzee,5,3,13,pair_13,1,3,480,128,800,128,1,2,1,725,0.0,0.0
allritz2021chimpanzees,kofi,9.0,m,chimpanzee,5,5,13,pair_34,3,4,800,640,1120,384,3,1,1,2198,1.0,3.0
allritz2021chimpanzees,kofi,9.0,m,chimpanzee,5,11,13,pair_12,1,2,1120,896,160,896,1,1,1,736,0.0,0.0
allritz2021chimpanzees,kofi,9.0,m,chimpanzee,5,15,13,pair_23,2,3,160,640,1120,384,2,1,1,687,0.0,0.0
allritz2021chimpanzees,kofi,9.0,m,chimpanzee,5,23,14,pair_23,2,3,1120,896,160,384,2,1,1,974,1.0,0.0
allritz2021chimpanzees,kofi,9.0,m,chimpanzee,5,31,13,pair_15,1,5,1120,384,480,128,1,4,1,811,0.0,1.0
allritz2021chimpanzees,kofi,9.0,m,chimpanzee,5,34,14,pair_13,1,3,160,896,160,384,1,2,1,634,0.0,0.0
allritz2021chimpanzees,kofi,9.0,m,chimpanzee,5,35,13,pair_45,4,5,1120,640,800,128,4,1,1,2150,1.0,4.0
allritz2021chimpanzees,kofi,9.0,m,chimpanzee,5,40,13,pair_25,2,5,160,640,480,128,2,3,1,999,1.0,0.0
allritz2021chimpanzees,kofi,9.0,m,chimpanzee,5,41,13,pair_35,3,5,800,896,1120,384,3,2,1,1456,2.0,1.0
allritz2021chimpanzees,kofi,9.0,m,chimpanzee,5,47,14,pair_34,3,4,160,128,480,128,3,1,1,1446,1.0,0.0
allritz2021chimpanzees,kofi,9.0,m,chimpanzee,5,48,15,pair_23,2,3,160,384,800,896,2,1,1,1366,2.0,0.0
allritz2021chimpanzees,kofi,9.0,m,chimpanzee,5,50,14,pair_12,1,2,800,640,160,384,1,1,1,1526,1.0,2.0
allritz2021chimpanzees,kofi,9.0,m,chimpanzee,5,51,13,pair_14,1,4,160,896,1120,384,1,3,1,670,1.0,1.0
allritz2021chimpanzees,kofi,9.0,m,chimpanzee,5,55,15,pair_12,1,2,480,384,800,384,1,1,1,617,0.0,0.0
allritz2021chimpanzees,kofi,9.0,m,chimpanzee,5,56,14,pair_35,3,5,480,896,480,640,3,2,1,1453,2.0,1.0
allritz2021chimpanzees,kofi,9.0,m,chimpanzee,5,59,14,pair_45,4,5,160,384,480,384,4,1,1,1127,0.0,1.0
allritz2021chimpanzees,kofi,9.0,m,chimpanzee,5,62,15,pair_45,4,5,1120,128,1120,384,4,1,1,1628,1.0,1.0
allritz2021chimpanzees,kofi,9.0,m,chimpanzee,5,64,14,pair_14,1,4,800,896,480,384,1,3,1,635,0.0,0.0
allritz2021chimpanzees,kofi,9.0,m,chimpanzee,5,65,14,pair_15,1,5,480,896,160,128,1,4,1,526,0.0,0.0
allritz2021chimpanzees,kofi,9.0,m,chimpanzee,5,67,14,pair_25,2,5,480,128,1120,640,2,3,1,847,0.0,0.0
allritz2021chimpanzees,kofi,9.0,m,chimpanzee,5,75,15,pair_34,3,4,800,384,1120,896,3,1,1,927,1.0,1.0
allritz2021chimpanzees,kofi,9.0,m,chimpanzee,5,76,13,pair_24,2,4,160,640,800,640,2,2,1,700,0.0,0.0
allritz2021chimpanzees,kofi,9.0,m,chimpanzee,5,77,15,pair_14,1,4,1120,896,1120,384,1,3,1,763,0.0,0.0
allritz2021chimpanzees,kofi,9.0,m,chimpanzee,5,83,15,pair_25,2,5,1120,896,480,128,2,3,1,1163,0.0,1.0
allritz2021chimpanzees,kofi,9.0,m,chimpanzee,5,84,15,pair_15,1,5,160,128,480,384,1,4,1,819,0.0,0.0
allritz2021chimpanzees,kofi,9.0,m,chimpanzee,5,94,14,pair_24,2,4,480,384,480,640,2,2,1,725,0.0,0.0
allritz2021chimpanzees,kofi,9.0,m,chimpanzee,5,95,15,pair_24,2,4,1120,128,160,384,2,2,1,873,0.0,0.0
allritz2021chimpanzees,kofi,9.0,m,chimpanzee,5,96,15,pair_13,1,3,480,128,800,384,1,2,1,749,0.0,0.0
allritz2021chimpanzees,kofi,9.0,m,chimpanzee,5,98,15,pair_35,3,5,480,896,1120,640,3,2,1,1910,2.0,2.0
allritz2021chimpanzees,kofi,9.0,m,chimpanzee,6,3,16,pair_35,3,5,160,128,800,640,3,2,1,1270,1.0,0.0
allritz2021chimpanzees,kofi,9.0,m,chimpanzee,6,18,16,pair_45,4,5,480,640,480,896,4,1,1,1301,0.0,0.0
allritz2021chimpanzees,kofi,9.0,m,chimpanzee,6,22,16,pair_34,3,4,800,640,160,640,3,1,1,868,0.0,0.0
allritz2021chimpanzees,kofi,9.0,m,chimpanzee,6,26,16,pair_25,2,5,1120,896,800,128,2,3,1,1041,0.0,1.0
allritz2021chimpanzees,kofi,9.0,m,chimpanzee,6,28,17,pair_35,3,5,1120,896,1120,384,3,2,1,1351,1.0,1.0
allritz2021chimpanzees,kofi,9.0,m,chimpanzee,6,29,17,pair_34,3,4,1120,128,160,640,3,1,1,871,0.0,0.0
allritz2021chimpanzees,kofi,9.0,m,chimpanzee,6,40,16,pair_13,1,3,480,896,480,640,1,2,1,586,0.0,0.0
allritz2021chimpanzees,kofi,9.0,m,chimpanzee,6,47,16,pair_24,2,4,1120,384,800,384,2,2,1,2627,2.0,3.0
allritz2021chimpanzees,kofi,9.0,m,chimpanzee,6,50,16,pair_14,1,4,1120,896,800,640,1,3,1,1495,1.0,1.0
allritz2021chimpanzees,kofi,9.0,m,chimpanzee,6,51,16,pair_15,1,5,1120,128,160,896,1,4,1,858,0.0,0.0
allritz2021chimpanzees,kofi,9.0,m,chimpanzee,6,52,16,pair_23,2,3,160,384,480,896,2,1,1,1334,0.0,2.0
allritz2021chimpanzees,kofi,9.0,m,chimpanzee,6,55,17,pair_13,1,3,1120,384,160,128,1,2,1,650,0.0,0.0
allritz2021chimpanzees,kofi,9.0,m,chimpanzee,6,56,17,pair_24,2,4,1120,896,160,384,2,2,1,661,0.0,0.0
allritz2021chimpanzees,kofi,9.0,m,chimpanzee,6,57,18,pair_24,2,4,1120,384,800,640,2,2,1,727,0.0,0.0
allritz2021chimpanzees,kofi,9.0,m,chimpanzee,6,60,16,pair_12,1,2,1120,128,480,640,1,1,0,789,0.0,0.0
allritz2021chimpanzees,kofi,9.0,m,chimpanzee,6,61,18,pair_34,3,4,1120,640,1120,128,3,1,1,1192,1.0,2.0
allritz2021chimpanzees,kofi,9.0,m,chimpanzee,6,62,17,pair_14,1,4,800,640,160,640,1,3,1,558,0.0,0.0
allritz2021chimpanzees,kofi,9.0,m,chimpanzee,6,64,17,pair_45,4,5,1120,896,800,384,4,1,1,1204,1.0,2.0
allritz2021chimpanzees,kofi,9.0,m,chimpanzee,6,73,17,pair_15,1,5,1120,640,480,384,1,4,1,703,0.0,0.0
allritz2021chimpanzees,kofi,9.0,m,chimpanzee,6,75,18,pair_45,4,5,1120,384,160,896,4,1,1,1464,1.0,2.0
allritz2021chimpanzees,kofi,9.0,m,chimpanzee,6,76,17,pair_25,2,5,1120,896,480,640,2,3,1,826,0.0,0.0
allritz2021chimpanzees,kofi,9.0,m,chimpanzee,6,77,18,pair_15,1,5,1120,896,1120,128,1,4,0,1011,0.0,1.0
allritz2021chimpanzees,kofi,9.0,m,chimpanzee,6,79,18,pair_14,1,4,800,640,480,640,1,3,1,573,0.0,0.0
allritz2021chimpanzees,kofi,9.0,m,chimpanzee,6,81,17,pair_23,2,3,480,384,800,128,2,1,1,862,0.0,1.0
allritz2021chimpanzees,kofi,9.0,m,chimpanzee,6,82,18,pair_25,2,5,160,128,480,896,2,3,1,911,0.0,0.0
allritz2021chimpanzees,kofi,9.0,m,chimpanzee,6,86,18,pair_35,3,5,480,640,160,384,3,2,1,1443,1.0,1.0
allritz2021chimpanzees,kofi,9.0,m,chimpanzee,6,87,18,pair_23,2,3,800,896,1120,640,2,1,0,1084,0.0,0.0
allritz2021chimpanzees,kofi,9.0,m,chimpanzee,6,90,17,pair_12,1,2,1120,384,1120,128,1,1,1,639,0.0,0.0
allritz2021chimpanzees,kofi,9.0,m,chimpanzee,6,92,18,pair_13,1,3,1120,896,160,128,1,2,1,663,0.0,0.0
allritz2021chimpanzees,kofi,9.0,m,chimpanzee,6,99,18,pair_12,1,2,160,128,1120,640,1,1,0,615,0.0,0.0
allritz2021chimpanzees,kofi,9.0,m,chimpanzee,7,2,19,pair_15,1,5,1120,640,160,896,1,4,1,684,0.0,
allritz2021chimpanzees,kofi,9.0,m,chimpanzee,7,5,19,pair_34,3,4,160,384,1120,384,3,1,1,1442,1.0,
allritz2021chimpanzees,kofi,9.0,m,chimpanzee,7,8,19,pair_12,1,2,160,128,480,640,1,1,1,925,0.0,
allritz2021chimpanzees,kofi,9.0,m,chimpanzee,7,10,20,pair_12,1,2,1120,896,480,128,1,1,1,712,0.0,
allritz2021chimpanzees,kofi,9.0,m,chimpanzee,7,15,19,pair_35,3,5,1120,640,160,128,3,2,1,1507,1.0,
allritz2021chimpanzees,kofi,9.0,m,chimpanzee,7,16,19,pair_13,1,3,1120,128,1120,896,1,2,1,821,0.0,
allritz2021chimpanzees,kofi,9.0,m,chimpanzee,7,17,19,pair_14,1,4,160,384,800,384,1,3,1,580,0.0,
allritz2021chimpanzees,kofi,9.0,m,chimpanzee,7,28,20,pair_13,1,3,480,128,160,384,1,2,1,906,0.0,
allritz2021chimpanzees,kofi,9.0,m,chimpanzee,7,31,19,pair_25,2,5,800,896,1120,384,2,3,1,883,1.0,
allritz2021chimpanzees,kofi,9.0,m,chimpanzee,7,32,20,pair_34,3,4,800,128,1120,128,3,1,1,1161,0.0,
allritz2021chimpanzees,kofi,9.0,m,chimpanzee,7,37,19,pair_45,4,5,480,640,800,128,4,1,1,1131,0.0,
allritz2021chimpanzees,kofi,9.0,m,chimpanzee,7,39,20,pair_45,4,5,1120,640,160,128,4,1,1,1677,1.0,
allritz2021chimpanzees,kofi,9.0,m,chimpanzee,7,42,20,pair_25,2,5,480,384,800,640,2,3,1,586,0.0,
allritz2021chimpanzees,kofi,9.0,m,chimpanzee,7,45,19,pair_24,2,4,480,640,480,896,2,2,1,455,0.0,
allritz2021chimpanzees,kofi,9.0,m,chimpanzee,7,47,21,pair_13,1,3,160,640,160,896,1,2,1,714,0.0,
allritz2021chimpanzees,kofi,9.0,m,chimpanzee,7,49,20,pair_24,2,4,480,640,800,384,2,2,1,1036,0.0,
allritz2021chimpanzees,kofi,9.0,m,chimpanzee,7,50,20,pair_35,3,5,160,640,480,640,3,2,1,1479,0.0,
allritz2021chimpanzees,kofi,9.0,m,chimpanzee,7,58,20,pair_15,1,5,480,640,160,128,1,4,1,653,0.0,
allritz2021chimpanzees,kofi,9.0,m,chimpanzee,7,61,19,pair_23,2,3,1120,384,480,128,2,1,1,737,0.0,
allritz2021chimpanzees,kofi,9.0,m,chimpanzee,7,62,21,pair_12,1,2,160,384,1120,896,1,1,1,678,0.0,
allritz2021chimpanzees,kofi,9.0,m,chimpanzee,7,63,20,pair_23,2,3,1120,896,160,896,2,1,1,1113,0.0,
allritz2021chimpanzees,kofi,9.0,m,chimpanzee,7,71,21,pair_35,3,5,800,896,160,128,3,2,1,1157,0.0,
allritz2021chimpanzees,kofi,9.0,m,chimpanzee,7,72,21,pair_25,2,5,800,128,480,640,2,3,1,932,0.0,
allritz2021chimpanzees,kofi,9.0,m,chimpanzee,7,75,21,pair_34,3,4,800,640,1120,384,3,1,1,1553,1.0,
allritz2021chimpanzees,kofi,9.0,m,chimpanzee,7,76,20,pair_14,1,4,160,640,1120,896,1,3,1,617,0.0,
allritz2021chimpanzees,kofi,9.0,m,chimpanzee,7,77,21,pair_14,1,4,160,640,160,896,1,3,1,675,0.0,
allritz2021chimpanzees,kofi,9.0,m,chimpanzee,7,79,21,pair_23,2,3,800,128,160,896,2,1,1,785,0.0,
allritz2021chimpanzees,kofi,9.0,m,chimpanzee,7,86,21,pair_45,4,5,480,640,800,128,4,1,1,1360,1.0,
allritz2021chimpanzees,kofi,9.0,m,chimpanzee,7,87,21,pair_15,1,5,800,896,160,384,1,4,1,650,0.0,
allritz2021chimpanzees,kofi,9.0,m,chimpanzee,7,94,21,pair_24,2,4,1120,640,800,128,2,2,1,969,1.0,
allritz2021chimpanzees,kofi,9.0,m,chimpanzee,8,4,22,pair_13,1,3,160,384,160,896,1,2,1,682,0.0,
allritz2021chimpanzees,kofi,9.0,m,chimpanzee,8,7,22,pair_34,3,4,160,896,160,640,3,1,1,1500,1.0,
allritz2021chimpanzees,kofi,9.0,m,chimpanzee,8,9,22,pair_45,4,5,160,640,480,640,4,1,1,917,0.0,
allritz2021chimpanzees,kofi,9.0,m,chimpanzee,8,11,22,pair_25,2,5,480,128,160,640,2,3,1,853,0.0,
allritz2021chimpanzees,kofi,9.0,m,chimpanzee,8,13,23,pair_34,3,4,1120,384,1120,640,3,1,1,925,0.0,
allritz2021chimpanzees,kofi,9.0,m,chimpanzee,8,16,22,pair_35,3,5,800,896,1120,128,3,2,1,1700,0.0,
allritz2021chimpanzees,kofi,9.0,m,chimpanzee,8,20,22,pair_24,2,4,480,128,1120,128,2,2,1,728,0.0,
allritz2021chimpanzees,kofi,9.0,m,chimpanzee,8,22,22,pair_12,1,2,160,896,1120,640,1,1,1,608,0.0,
allritz2021chimpanzees,kofi,9.0,m,chimpanzee,8,26,23,pair_13,1,3,1120,896,1120,384,1,2,1,695,0.0,
allritz2021chimpanzees,kofi,9.0,m,chimpanzee,8,28,22,pair_23,2,3,160,640,480,384,2,1,1,1273,0.0,
allritz2021chimpanzees,kofi,9.0,m,chimpanzee,8,31,23,pair_35,3,5,1120,896,160,128,3,2,1,1690,1.0,
allritz2021chimpanzees,kofi,9.0,m,chimpanzee,8,41,24,pair_13,1,3,160,384,480,640,1,2,1,690,0.0,
allritz2021chimpanzees,kofi,9.0,m,chimpanzee,8,45,23,pair_23,2,3,160,128,480,896,2,1,1,1486,2.0,
allritz2021chimpanzees,kofi,9.0,m,chimpanzee,8,47,24,pair_35,3,5,160,128,480,896,3,2,1,2695,1.0,
allritz2021chimpanzees,kofi,9.0,m,chimpanzee,8,49,22,pair_15,1,5,480,640,800,896,1,4,1,674,0.0,
allritz2021chimpanzees,kofi,9.0,m,chimpanzee,8,51,23,pair_12,1,2,160,128,160,640,1,1,0,630,0.0,
allritz2021chimpanzees,kofi,9.0,m,chimpanzee,8,57,23,pair_15,1,5,160,896,1120,384,1,4,1,631,0.0,
allritz2021chimpanzees,kofi,9.0,m,chimpanzee,8,59,22,pair_14,1,4,1120,128,480,896,1,3,1,751,0.0,
allritz2021chimpanzees,kofi,9.0,m,chimpanzee,8,61,23,pair_24,2,4,1120,896,800,128,2,2,1,1314,1.0,
allritz2021chimpanzees,kofi,9.0,m,chimpanzee,8,63,23,pair_45,4,5,1120,128,160,640,4,1,1,1083,0.0,
allritz2021chimpanzees,kofi,9.0,m,chimpanzee,8,72,24,pair_24,2,4,160,128,1120,640,2,2,1,933,0.0,
allritz2021chimpanzees,kofi,9.0,m,chimpanzee,8,73,23,pair_14,1,4,480,640,800,896,1,3,1,537,0.0,
allritz2021chimpanzees,kofi,9.0,m,chimpanzee,8,74,24,pair_14,1,4,1120,128,160,128,1,3,1,912,0.0,
allritz2021chimpanzees,kofi,9.0,m,chimpanzee,8,78,23,pair_25,2,5,1120,128,160,128,2,3,1,1123,0.0,
allritz2021chimpanzees,kofi,9.0,m,chimpanzee,8,79,24,pair_15,1,5,1120,896,1120,384,1,4,1,705,0.0,
allritz2021chimpanzees,kofi,9.0,m,chimpanzee,8,81,24,pair_34,3,4,1120,384,480,896,3,1,1,1365,1.0,
allritz2021chimpanzees,kofi,9.0,m,chimpanzee,8,82,24,pair_12,1,2,800,384,800,896,1,1,1,693,0.0,
allritz2021chimpanzees,kofi,9.0,m,chimpanzee,8,86,24,pair_23,2,3,160,640,1120,384,2,1,1,703,0.0,
allritz2021chimpanzees,kofi,9.0,m,chimpanzee,8,96,24,pair_45,4,5,800,640,480,896,4,1,1,1116,1.0,
allritz2021chimpanzees,kofi,9.0,m,chimpanzee,8,97,24,pair_25,2,5,1120,896,480,640,2,3,1,767,0.0,
