study_id,experiment,experiment_name,year,month,day,subject,participant,age_in_years,sex,species,session,trial,trial_id,session_time,block_order,block_order_codes,block,fixation_rt,image_left,image_right,mask_rt_incl_buffer,reward,selected_picture
munar2015common,3,84ms,2013,06,09,2.0,jahaga,20,f,chimpanzee,1.0,1.0,,09:40:02,1.0,Block_1-Block_2,training,13086.0,control_anchor.bmp,control_fork.bmp,615.0,0.0,left
munar2015common,3,84ms,2013,06,09,3.0,fifi,20,f,chimpanzee,1.0,1.0,,09:58:48,1.0,Block_1-Block_2,training,8991.0,control_africanmask.bmp,control_feather.bmp,933.0,1.0,right
munar2015common,3,84ms,2013,06,09,4.0,alex,12,m,chimpanzee,1.0,1.0,,10:18:34,2.0,Block_2-Block_1,training,229.0,control_africanmask.bmp,control_feather.bmp,451.0,0.0,left
munar2015common,3,84ms,2013,08,02,5.0,lome,11,m,chimpanzee,1.0,1.0,,11:27:18,2.0,Block_2-Block_1,training,516.0,control_billiard.bmp,control_helm.bmp,2566.0,0.0,right
munar2015common,3,84ms,2013,08,02,6.0,kofi,8,m,chimpanzee,1.0,1.0,,10:57:42,2.0,Block_2-Block_1,training,8338.0,control_cane.bmp,control_leaf.bmp,878.0,1.0,right
munar2015common,3,84ms,2013,08,02,7.0,lobo,9,m,chimpanzee,1.0,1.0,,10:29:51,1.0,Block_1-Block_2,training,9653.0,control_barrell.bmp,control_harp.bmp,1569.0,1.0,left
munar2015common,3,84ms,2013,09,06,8.0,kibara,9,f,gorilla,1.0,1.0,,09:01:01,2.0,Block_2-Block_1,training,1567.0,control_billiard.bmp,control_helm.bmp,2317.0,0.0,right
munar2015common,3,84ms,2013,09,06,9.0,viringika,18,f,gorilla,1.0,1.0,,09:21:47,2.0,Block_2-Block_1,training,4480.0,control_bowtiepasta.bmp,control_icecream.bmp,437.0,0.0,left
munar2015common,3,84ms,2013,06,09,2.0,jahaga,20,f,chimpanzee,1.0,2.0,,09:40:02,1.0,Block_1-Block_2,training,266.0,control_cane.bmp,control_leaf.bmp,343.0,1.0,right
munar2015common,3,84ms,2013,06,09,3.0,fifi,20,f,chimpanzee,1.0,2.0,,09:58:48,1.0,Block_1-Block_2,training,2101.0,control_barrell.bmp,control_harp.bmp,1852.0,0.0,right
munar2015common,3,84ms,2013,06,09,4.0,alex,12,m,chimpanzee,1.0,2.0,,10:18:34,2.0,Block_2-Block_1,training,84.0,control_billiard.bmp,control_helm.bmp,354.0,1.0,right
munar2015common,3,84ms,2013,08,02,5.0,lome,11,m,chimpanzee,1.0,2.0,,11:27:18,2.0,Block_2-Block_1,training,1284.0,control_acorn.bmp,control_chili.bmp,512.0,1.0,right
munar2015common,3,84ms,2013,08,02,6.0,kofi,8,m,chimpanzee,1.0,2.0,,10:57:42,2.0,Block_2-Block_1,training,2429.0,control_africanmask.bmp,control_feather.bmp,877.0,0.0,left
munar2015common,3,84ms,2013,08,02,7.0,lobo,9,m,chimpanzee,1.0,2.0,,10:29:51,1.0,Block_1-Block_2,training,4242.0,control_africanmask.bmp,control_feather.bmp,1466.0,0.0,left
munar2015common,3,84ms,2013,09,06,8.0,kibara,9,f,gorilla,1.0,2.0,,09:01:01,2.0,Block_2-Block_1,training,471.0,control_acordion.bmp,control_cherry.bmp,606.0,1.0,left
munar2015common,3,84ms,2013,09,06,9.0,viringika,18,f,gorilla,1.0,2.0,,09:21:47,2.0,Block_2-Block_1,training,242.0,control_acordion.bmp,control_cherry.bmp,407.0,1.0,left
munar2015common,3,84ms,2013,06,09,2.0,jahaga,20,f,chimpanzee,1.0,3.0,,09:40:02,1.0,Block_1-Block_2,training,1462.0,control_acorn.bmp,control_chili.bmp,832.0,1.0,right
munar2015common,3,84ms,2013,06,09,3.0,fifi,20,f,chimpanzee,1.0,3.0,,09:58:48,1.0,Block_1-Block_2,training,267.0,control_billiard.bmp,control_helm.bmp,550.0,0.0,left
munar2015common,3,84ms,2013,06,09,4.0,alex,12,m,chimpanzee,1.0,3.0,,10:18:34,2.0,Block_2-Block_1,training,641.0,control_acorn.bmp,control_chili.bmp,488.0,0.0,left
munar2015common,3,84ms,2013,08,02,5.0,lome,11,m,chimpanzee,1.0,3.0,,11:27:18,2.0,Block_2-Block_1,training,5610.0,control_acordion.bmp,control_cherry.bmp,452.0,1.0,left
munar2015common,3,84ms,2013,08,02,6.0,kofi,8,m,chimpanzee,1.0,3.0,,10:57:42,2.0,Block_2-Block_1,training,808.0,control_billiard.bmp,control_helm.bmp,708.0,0.0,left
munar2015common,3,84ms,2013,08,02,7.0,lobo,9,m,chimpanzee,1.0,3.0,,10:29:51,1.0,Block_1-Block_2,training,541.0,control_anchor.bmp,control_fork.bmp,795.0,1.0,right
munar2015common,3,84ms,2013,09,06,8.0,kibara,9,f,gorilla,1.0,3.0,,09:01:01,2.0,Block_2-Block_1,training,911.0,control_anchor.bmp,control_fork.bmp,929.0,1.0,left
munar2015common,3,84ms,2013,09,06,9.0,viringika,18,f,gorilla,1.0,3.0,,09:21:47,2.0,Block_2-Block_1,training,629.0,control_barrell.bmp,control_harp.bmp,555.0,1.0,left
munar2015common,3,84ms,2013,06,09,2.0,jahaga,20,f,chimpanzee,1.0,4.0,,09:40:02,1.0,Block_1-Block_2,training,1207.0,control_africanmask.bmp,control_feather.bmp,368.0,0.0,left
munar2015common,3,84ms,2013,06,09,3.0,fifi,20,f,chimpanzee,1.0,4.0,,09:58:48,1.0,Block_1-Block_2,training,165.0,control_acordion.bmp,control_cherry.bmp,508.0,1.0,left
munar2015common,3,84ms,2013,06,09,4.0,alex,12,m,chimpanzee,1.0,4.0,,10:18:34,2.0,Block_2-Block_1,training,439.0,control_anchor.bmp,control_fork.bmp,1226.0,1.0,right
munar2015common,3,84ms,2013,08,02,5.0,lome,11,m,chimpanzee,1.0,4.0,,11:27:18,2.0,Block_2-Block_1,training,6936.0,control_anchor.bmp,control_fork.bmp,855.0,0.0,right
munar2015common,3,84ms,2013,08,02,6.0,kofi,8,m,chimpanzee,1.0,4.0,,10:57:42,2.0,Block_2-Block_1,training,7933.0,control_bowtiepasta.bmp,control_icecream.bmp,722.0,1.0,right
munar2015common,3,84ms,2013,08,02,7.0,lobo,9,m,chimpanzee,1.0,4.0,,10:29:51,1.0,Block_1-Block_2,training,3863.0,control_cane.bmp,control_leaf.bmp,664.0,0.0,right
munar2015common,3,84ms,2013,09,06,8.0,kibara,9,f,gorilla,1.0,4.0,,09:01:01,2.0,Block_2-Block_1,training,1533.0,control_cane.bmp,control_leaf.bmp,633.0,0.0,right
munar2015common,3,84ms,2013,09,06,9.0,viringika,18,f,gorilla,1.0,4.0,,09:21:47,2.0,Block_2-Block_1,training,1307.0,control_acorn.bmp,control_chili.bmp,407.0,0.0,left
munar2015common,3,84ms,2013,06,09,2.0,jahaga,20,f,chimpanzee,1.0,5.0,,09:40:02,1.0,Block_1-Block_2,training,1796.0,control_barrell.bmp,control_harp.bmp,323.0,0.0,left
munar2015common,3,84ms,2013,06,09,3.0,fifi,20,f,chimpanzee,1.0,5.0,,09:58:48,1.0,Block_1-Block_2,training,1064.0,control_anchor.bmp,control_fork.bmp,854.0,0.0,left
munar2015common,3,84ms,2013,06,09,4.0,alex,12,m,chimpanzee,1.0,5.0,,10:18:34,2.0,Block_2-Block_1,training,1164.0,control_acordion.bmp,control_cherry.bmp,538.0,0.0,left
munar2015common,3,84ms,2013,08,02,5.0,lome,11,m,chimpanzee,1.0,5.0,,11:27:18,2.0,Block_2-Block_1,training,2670.0,control_barrell.bmp,control_harp.bmp,2474.0,1.0,right
munar2015common,3,84ms,2013,08,02,6.0,kofi,8,m,chimpanzee,1.0,5.0,,10:57:42,2.0,Block_2-Block_1,training,1770.0,control_anchor.bmp,control_fork.bmp,1044.0,1.0,right
munar2015common,3,84ms,2013,08,02,7.0,lobo,9,m,chimpanzee,1.0,5.0,,10:29:51,1.0,Block_1-Block_2,training,599.0,control_acordion.bmp,control_cherry.bmp,622.0,0.0,left
munar2015common,3,84ms,2013,09,06,8.0,kibara,9,f,gorilla,1.0,5.0,,09:01:01,2.0,Block_2-Block_1,training,2222.0,control_africanmask.bmp,control_feather.bmp,428.0,1.0,left
munar2015common,3,84ms,2013,09,06,9.0,viringika,18,f,gorilla,1.0,5.0,,09:21:47,2.0,Block_2-Block_1,training,1870.0,control_cane.bmp,control_leaf.bmp,667.0,1.0,left
munar2015common,3,84ms,2013,06,09,2.0,jahaga,20,f,chimpanzee,1.0,6.0,,09:40:02,1.0,Block_1-Block_2,training,458.0,control_acordion.bmp,control_cherry.bmp,308.0,1.0,right
munar2015common,3,84ms,2013,06,09,3.0,fifi,20,f,chimpanzee,1.0,6.0,,09:58:48,1.0,Block_1-Block_2,training,4108.0,control_cane.bmp,control_leaf.bmp,1159.0,1.0,right
munar2015common,3,84ms,2013,06,09,4.0,alex,12,m,chimpanzee,1.0,6.0,,10:18:34,2.0,Block_2-Block_1,training,1359.0,control_barrell.bmp,control_harp.bmp,320.0,1.0,left
munar2015common,3,84ms,2013,08,02,5.0,lome,11,m,chimpanzee,1.0,6.0,,11:27:18,2.0,Block_2-Block_1,training,5242.0,control_cane.bmp,control_leaf.bmp,621.0,0.0,right
munar2015common,3,84ms,2013,08,02,6.0,kofi,8,m,chimpanzee,1.0,6.0,,10:57:42,2.0,Block_2-Block_1,training,5369.0,control_acorn.bmp,control_chili.bmp,1124.0,0.0,left
munar2015common,3,84ms,2013,08,02,7.0,lobo,9,m,chimpanzee,1.0,6.0,,10:29:51,1.0,Block_1-Block_2,training,464.0,control_billiard.bmp,control_helm.bmp,804.0,1.0,right
munar2015common,3,84ms,2013,09,06,8.0,kibara,9,f,gorilla,1.0,6.0,,09:01:01,2.0,Block_2-Block_1,training,4905.0,control_barrell.bmp,control_harp.bmp,548.0,0.0,left
munar2015common,3,84ms,2013,09,06,9.0,viringika,18,f,gorilla,1.0,6.0,,09:21:47,2.0,Block_2-Block_1,training,2819.0,control_africanmask.bmp,control_feather.bmp,412.0,0.0,left
munar2015common,3,84ms,2013,06,09,2.0,jahaga,20,f,chimpanzee,1.0,7.0,,09:40:02,1.0,Block_1-Block_2,training,588.0,control_billiard.bmp,control_helm.bmp,295.0,1.0,right
munar2015common,3,84ms,2013,06,09,3.0,fifi,20,f,chimpanzee,1.0,7.0,,09:58:48,1.0,Block_1-Block_2,training,15072.0,control_bowtiepasta.bmp,control_icecream.bmp,831.0,0.0,left
munar2015common,3,84ms,2013,06,09,4.0,alex,12,m,chimpanzee,1.0,7.0,,10:18:34,2.0,Block_2-Block_1,training,1019.0,control_cane.bmp,control_leaf.bmp,461.0,0.0,right
munar2015common,3,84ms,2013,08,02,5.0,lome,11,m,chimpanzee,1.0,7.0,,11:27:18,2.0,Block_2-Block_1,training,1369.0,control_africanmask.bmp,control_feather.bmp,482.0,1.0,left
munar2015common,3,84ms,2013,08,02,6.0,kofi,8,m,chimpanzee,1.0,7.0,,10:57:42,2.0,Block_2-Block_1,training,1372.0,control_barrell.bmp,control_harp.bmp,776.0,1.0,left
munar2015common,3,84ms,2013,08,02,7.0,lobo,9,m,chimpanzee,1.0,7.0,,10:29:51,1.0,Block_1-Block_2,training,3348.0,control_bowtiepasta.bmp,control_icecream.bmp,1256.0,0.0,right
munar2015common,3,84ms,2013,09,06,8.0,kibara,9,f,gorilla,1.0,7.0,,09:01:01,2.0,Block_2-Block_1,training,2465.0,control_acorn.bmp,control_chili.bmp,455.0,0.0,left
munar2015common,3,84ms,2013,09,06,9.0,viringika,18,f,gorilla,1.0,7.0,,09:21:47,2.0,Block_2-Block_1,training,2288.0,control_billiard.bmp,control_helm.bmp,423.0,1.0,left
munar2015common,3,84ms,2013,06,09,2.0,jahaga,20,f,chimpanzee,1.0,8.0,,09:40:02,1.0,Block_1-Block_2,training,1948.0,control_bowtiepasta.bmp,control_icecream.bmp,818.0,0.0,right
munar2015common,3,84ms,2013,06,09,3.0,fifi,20,f,chimpanzee,1.0,8.0,,09:58:48,1.0,Block_1-Block_2,training,12.0,control_acorn.bmp,control_chili.bmp,692.0,1.0,right
munar2015common,3,84ms,2013,06,09,4.0,alex,12,m,chimpanzee,1.0,8.0,,10:18:34,2.0,Block_2-Block_1,training,1296.0,control_bowtiepasta.bmp,control_icecream.bmp,653.0,1.0,left
munar2015common,3,84ms,2013,08,02,5.0,lome,11,m,chimpanzee,1.0,8.0,,11:27:18,2.0,Block_2-Block_1,training,2704.0,control_bowtiepasta.bmp,control_icecream.bmp,1295.0,0.0,left
munar2015common,3,84ms,2013,08,02,6.0,kofi,8,m,chimpanzee,1.0,8.0,,10:57:42,2.0,Block_2-Block_1,training,10927.0,control_acordion.bmp,control_cherry.bmp,597.0,0.0,right
munar2015common,3,84ms,2013,08,02,7.0,lobo,9,m,chimpanzee,1.0,8.0,,10:29:51,1.0,Block_1-Block_2,training,144.0,control_acorn.bmp,control_chili.bmp,671.0,1.0,left
munar2015common,3,84ms,2013,09,06,8.0,kibara,9,f,gorilla,1.0,8.0,,09:01:01,2.0,Block_2-Block_1,training,1604.0,control_bowtiepasta.bmp,control_icecream.bmp,630.0,1.0,left
munar2015common,3,84ms,2013,09,06,9.0,viringika,18,f,gorilla,1.0,8.0,,09:21:47,2.0,Block_2-Block_1,training,3511.0,control_anchor.bmp,control_fork.bmp,521.0,0.0,right
munar2015common,3,84ms,2013,06,09,2.0,jahaga,20,f,chimpanzee,1.0,9.0,36.0,09:40:02,1.0,Block_1-Block_2,block1,2826.0,sharneu_windchime.bmp,rouneu_windchime.bmp,310.0,0.0,right
munar2015common,3,84ms,2013,06,09,3.0,fifi,20,f,chimpanzee,1.0,9.0,64.0,09:58:48,1.0,Block_1-Block_2,block1,2587.0,sharneu_mailbox.bmp,sharneu_printer.bmp,825.0,0.0,left
munar2015common,3,84ms,2013,06,09,4.0,alex,12,m,chimpanzee,1.0,9.0,139.0,10:18:34,2.0,Block_2-Block_1,block2,1619.0,sharneu_toaster.bmp,sharneu_radioantique.bmp,443.0,0.0,right
munar2015common,3,84ms,2013,08,02,5.0,lome,11,m,chimpanzee,1.0,9.0,105.0,11:27:18,2.0,Block_2-Block_1,block2,1996.0,rouneu_tent.bmp,sharneu_tent.bmp,554.0,1.0,right
munar2015common,3,84ms,2013,08,02,6.0,kofi,8,m,chimpanzee,1.0,9.0,118.0,10:57:42,2.0,Block_2-Block_1,block2,1328.0,rouneu_printer.bmp,rouneu_mailbox.bmp,622.0,1.0,right
munar2015common,3,84ms,2013,08,02,7.0,lobo,9,m,chimpanzee,1.0,9.0,35.0,10:29:51,1.0,Block_1-Block_2,block1,4269.0,sharneu_vase.bmp,rouneu_vase.bmp,810.0,1.0,left
munar2015common,3,84ms,2013,09,06,8.0,kibara,9,f,gorilla,1.0,9.0,89.0,09:01:01,2.0,Block_2-Block_1,block2,4710.0,sharneu_cookie.bmp,rouneu_cookie.bmp,623.0,1.0,left
munar2015common,3,84ms,2013,09,06,9.0,viringika,18,f,gorilla,1.0,9.0,107.0,09:21:47,2.0,Block_2-Block_1,block2,143.0,rouneu_vase.bmp,sharneu_vase.bmp,399.0,0.0,left
munar2015common,3,84ms,2013,06,09,2.0,jahaga,20,f,chimpanzee,1.0,10.0,61.0,09:40:02,1.0,Block_1-Block_2,block1,1385.0,sharneu_clockalarm.bmp,sharneu_vcr.bmp,792.0,1.0,right
munar2015common,3,84ms,2013,06,09,3.0,fifi,20,f,chimpanzee,1.0,10.0,9.0,09:58:48,1.0,Block_1-Block_2,block1,253.0,rouneu_bundtpan.bmp,sharneu_bundtpan.bmp,1063.0,1.0,left
munar2015common,3,84ms,2013,06,09,4.0,alex,12,m,chimpanzee,1.0,10.0,85.0,10:18:34,2.0,Block_2-Block_1,block2,1234.0,sharneu_canister.bmp,rouneu_canister.bmp,1091.0,1.0,right
munar2015common,3,84ms,2013,08,02,5.0,lome,11,m,chimpanzee,1.0,10.0,141.0,11:27:18,2.0,Block_2-Block_1,block2,3108.0,sharneu_sponge.bmp,sharneu_scrubbrush.bmp,1537.0,0.0,left
munar2015common,3,84ms,2013,08,02,6.0,kofi,8,m,chimpanzee,1.0,10.0,93.0,10:57:42,2.0,Block_2-Block_1,block2,9930.0,rouneu_figuretriangle.bmp,sharneu_figuretriangle.bmp,2899.0,0.0,right
munar2015common,3,84ms,2013,08,02,7.0,lobo,9,m,chimpanzee,1.0,10.0,20.0,10:29:51,1.0,Block_1-Block_2,block1,1556.0,sharneu_figureblock.bmp,rouneu_figureblock.bmp,632.0,0.0,right
munar2015common,3,84ms,2013,09,06,8.0,kibara,9,f,gorilla,1.0,10.0,100.0,09:01:01,2.0,Block_2-Block_1,block2,1686.0,rouneu_pan.bmp,sharneu_pan.bmp,570.0,0.0,left
munar2015common,3,84ms,2013,09,06,9.0,viringika,18,f,gorilla,1.0,10.0,132.0,09:21:47,2.0,Block_2-Block_1,block2,2046.0,sharneu_watch.bmp,sharneu_clock.bmp,373.0,1.0,left
munar2015common,3,84ms,2013,06,09,2.0,jahaga,20,f,chimpanzee,1.0,11.0,23.0,09:40:02,1.0,Block_1-Block_2,block1,365.0,sharneu_flowerpot.bmp,rouneu_flowerpot.bmp,350.0,0.0,left
munar2015common,3,84ms,2013,06,09,3.0,fifi,20,f,chimpanzee,1.0,11.0,72.0,09:58:48,1.0,Block_1-Block_2,block1,1182.0,sharneu_television.bmp,sharneu_camera.bmp,699.0,1.0,left
munar2015common,3,84ms,2013,06,09,4.0,alex,12,m,chimpanzee,1.0,11.0,112.0,10:18:34,2.0,Block_2-Block_1,block2,1727.0,rouneu_mirror.bmp,rouneu_boxlock.bmp,441.0,0.0,right
munar2015common,3,84ms,2013,08,02,5.0,lome,11,m,chimpanzee,1.0,11.0,80.0,11:27:18,2.0,Block_2-Block_1,block2,7882.0,sharneu_bucket.bmp,rouneu_bucket.bmp,552.0,1.0,left
munar2015common,3,84ms,2013,08,02,6.0,kofi,8,m,chimpanzee,1.0,11.0,126.0,10:57:42,2.0,Block_2-Block_1,block2,74055.0,rouneu_camera.bmp,rouneu_television.bmp,893.0,1.0,left
munar2015common,3,84ms,2013,08,02,7.0,lobo,9,m,chimpanzee,1.0,11.0,42.0,10:29:51,1.0,Block_1-Block_2,block1,4954.0,rouneu_clock.bmp,rouneu_watch.bmp,992.0,1.0,right
munar2015common,3,84ms,2013,09,06,8.0,kibara,9,f,gorilla,1.0,11.0,120.0,09:01:01,2.0,Block_2-Block_1,block2,867.0,rouneu_remote.bmp,rouneu_phonecordless.bmp,512.0,1.0,left
munar2015common,3,84ms,2013,09,06,9.0,viringika,18,f,gorilla,1.0,11.0,130.0,09:21:47,2.0,Block_2-Block_1,block2,6146.0,sharneu_mirror.bmp,sharneu_boxlock.bmp,421.0,1.0,left
munar2015common,3,84ms,2013,06,09,2.0,jahaga,20,f,chimpanzee,1.0,12.0,35.0,09:40:02,1.0,Block_1-Block_2,block1,1183.0,sharneu_vase.bmp,rouneu_vase.bmp,340.0,1.0,left
munar2015common,3,84ms,2013,06,09,3.0,fifi,20,f,chimpanzee,1.0,12.0,12.0,09:58:48,1.0,Block_1-Block_2,block1,17442.0,rouneu_candletray.bmp,sharneu_candletray.bmp,654.0,0.0,left
munar2015common,3,84ms,2013,06,09,4.0,alex,12,m,chimpanzee,1.0,12.0,90.0,10:18:34,2.0,Block_2-Block_1,block2,682.0,sharneu_cushion.bmp,rouneu_cushion.bmp,619.0,1.0,left
munar2015common,3,84ms,2013,08,02,5.0,lome,11,m,chimpanzee,1.0,12.0,90.0,11:27:18,2.0,Block_2-Block_1,block2,2885.0,sharneu_cushion.bmp,rouneu_cushion.bmp,622.0,0.0,left
munar2015common,3,84ms,2013,08,02,6.0,kofi,8,m,chimpanzee,1.0,12.0,121.0,10:57:42,2.0,Block_2-Block_1,block2,11037.0,rouneu_toaster.bmp,rouneu_radioantique.bmp,1408.0,0.0,left
munar2015common,3,84ms,2013,08,02,7.0,lobo,9,m,chimpanzee,1.0,12.0,11.0,10:29:51,1.0,Block_1-Block_2,block1,4133.0,rouneu_candle.bmp,sharneu_candle.bmp,798.0,0.0,left
munar2015common,3,84ms,2013,09,06,8.0,kibara,9,f,gorilla,1.0,12.0,123.0,09:01:01,2.0,Block_2-Block_1,block2,4941.0,rouneu_sponge.bmp,rouneu_scrubbrush.bmp,552.0,0.0,left
munar2015common,3,84ms,2013,09,06,9.0,viringika,18,f,gorilla,1.0,12.0,122.0,09:21:47,2.0,Block_2-Block_1,block2,4233.0,rouneu_speaker.bmp,rouneu_recycle.bmp,818.0,0.0,right
munar2015common,3,84ms,2013,06,09,2.0,jahaga,20,f,chimpanzee,1.0,13.0,68.0,09:40:02,1.0,Block_1-Block_2,block1,843.0,sharneu_recyclebin.bmp,sharneu_speaker.bmp,370.0,1.0,left
munar2015common,3,84ms,2013,06,09,3.0,fifi,20,f,chimpanzee,1.0,13.0,29.0,09:58:48,1.0,Block_1-Block_2,block1,59.0,sharneu_pictureframe.bmp,rouneu_pictureframe.bmp,519.0,1.0,left
munar2015common,3,84ms,2013,06,09,4.0,alex,12,m,chimpanzee,1.0,13.0,101.0,10:18:34,2.0,Block_2-Block_1,block2,2008.0,rouneu_pictureframe.bmp,sharneu_pictureframe.bmp,1249.0,1.0,left
munar2015common,3,84ms,2013,08,02,5.0,lome,11,m,chimpanzee,1.0,13.0,73.0,11:27:18,2.0,Block_2-Block_1,block2,380.0,sharneu_basket.bmp,rouneu_basket.bmp,847.0,0.0,left
munar2015common,3,84ms,2013,08,02,6.0,kofi,8,m,chimpanzee,1.0,13.0,75.0,10:57:42,2.0,Block_2-Block_1,block2,1912.0,sharneu_bench.bmp,rouneu_bench.bmp,603.0,1.0,left
munar2015common,3,84ms,2013,08,02,7.0,lobo,9,m,chimpanzee,1.0,13.0,29.0,10:29:51,1.0,Block_1-Block_2,block1,313.0,sharneu_pictureframe.bmp,rouneu_pictureframe.bmp,783.0,0.0,left
munar2015common,3,84ms,2013,09,06,8.0,kibara,9,f,gorilla,1.0,13.0,77.0,09:01:01,2.0,Block_2-Block_1,block2,896.0,sharneu_briefcase.bmp,rouneu_briefcase.bmp,531.0,0.0,right
munar2015common,3,84ms,2013,09,06,9.0,viringika,18,f,gorilla,1.0,13.0,123.0,09:21:47,2.0,Block_2-Block_1,block2,1613.0,rouneu_sponge.bmp,rouneu_scrubbrush.bmp,450.0,1.0,left
munar2015common,3,84ms,2013,06,09,2.0,jahaga,20,f,chimpanzee,1.0,14.0,51.0,09:40:02,1.0,Block_1-Block_2,block1,1105.0,rouneu_scrubbrush.bmp,rouneu_sponge.bmp,357.0,0.0,right
munar2015common,3,84ms,2013,06,09,3.0,fifi,20,f,chimpanzee,1.0,14.0,35.0,09:58:48,1.0,Block_1-Block_2,block1,1219.0,sharneu_vase.bmp,rouneu_vase.bmp,943.0,0.0,right
munar2015common,3,84ms,2013,06,09,4.0,alex,12,m,chimpanzee,1.0,14.0,107.0,10:18:34,2.0,Block_2-Block_1,block2,3205.0,rouneu_vase.bmp,sharneu_vase.bmp,1035.0,0.0,right
munar2015common,3,84ms,2013,08,02,5.0,lome,11,m,chimpanzee,1.0,14.0,78.0,11:27:18,2.0,Block_2-Block_1,block2,181.0,sharneu_brush.bmp,rouneu_brush.bmp,2428.0,1.0,right
munar2015common,3,84ms,2013,08,02,6.0,kofi,8,m,chimpanzee,1.0,14.0,79.0,10:57:42,2.0,Block_2-Block_1,block2,3488.0,sharneu_brushsmall.bmp,rouneu_brushsmall.bmp,1575.0,0.0,left
munar2015common,3,84ms,2013,08,02,7.0,lobo,9,m,chimpanzee,1.0,14.0,2.0,10:29:51,1.0,Block_1-Block_2,block1,12111.0,rouneu_basket2.bmp,sharneu_basket2.bmp,705.0,1.0,right
munar2015common,3,84ms,2013,09,06,8.0,kibara,9,f,gorilla,1.0,14.0,97.0,09:01:01,2.0,Block_2-Block_1,block2,929.0,rouneu_gem.bmp,sharneu_gem.bmp,547.0,1.0,left
munar2015common,3,84ms,2013,09,06,9.0,viringika,18,f,gorilla,1.0,14.0,89.0,09:21:47,2.0,Block_2-Block_1,block2,3849.0,sharneu_cookie.bmp,rouneu_cookie.bmp,1084.0,0.0,left
munar2015common,3,84ms,2013,06,09,2.0,jahaga,20,f,chimpanzee,1.0,15.0,10.0,09:40:02,1.0,Block_1-Block_2,block1,820.0,rouneu_butterfly.bmp,sharneu_butterfly.bmp,284.0,1.0,right
munar2015common,3,84ms,2013,06,09,3.0,fifi,20,f,chimpanzee,1.0,15.0,11.0,09:58:48,1.0,Block_1-Block_2,block1,184.0,rouneu_candle.bmp,sharneu_candle.bmp,791.0,0.0,right
munar2015common,3,84ms,2013,06,09,4.0,alex,12,m,chimpanzee,1.0,15.0,129.0,10:18:34,2.0,Block_2-Block_1,block2,866.0,sharneu_lantern.bmp,sharneu_battery.bmp,1840.0,1.0,left
munar2015common,3,84ms,2013,08,02,5.0,lome,11,m,chimpanzee,1.0,15.0,96.0,11:27:18,2.0,Block_2-Block_1,block2,2870.0,rouneu_flowersandpot.bmp,sharneu_flowersandpot.bmp,904.0,1.0,left
munar2015common,3,84ms,2013,08,02,6.0,kofi,8,m,chimpanzee,1.0,15.0,109.0,10:57:42,2.0,Block_2-Block_1,block2,20125.0,rouneu_phone.bmp,rouneu_answering.bmp,487.0,1.0,right
munar2015common,3,84ms,2013,08,02,7.0,lobo,9,m,chimpanzee,1.0,15.0,32.0,10:29:51,1.0,Block_1-Block_2,block1,2072.0,sharneu_table.bmp,rouneu_table.bmp,3423.0,0.0,right
munar2015common,3,84ms,2013,09,06,8.0,kibara,9,f,gorilla,1.0,15.0,122.0,09:01:01,2.0,Block_2-Block_1,block2,4942.0,rouneu_speaker.bmp,rouneu_recycle.bmp,495.0,0.0,left
munar2015common,3,84ms,2013,09,06,9.0,viringika,18,f,gorilla,1.0,15.0,104.0,09:21:47,2.0,Block_2-Block_1,block2,3131.0,rouneu_table.bmp,sharneu_table.bmp,377.0,0.0,left
munar2015common,3,84ms,2013,06,09,2.0,jahaga,20,f,chimpanzee,1.0,16.0,1.0,09:40:02,1.0,Block_1-Block_2,block1,8263.0,rouneu_basket.bmp,sharneu_basket.bmp,299.0,0.0,right
munar2015common,3,84ms,2013,06,09,3.0,fifi,20,f,chimpanzee,1.0,16.0,67.0,09:58:48,1.0,Block_1-Block_2,block1,42.0,sharneu_radioantique.bmp,sharneu_toaster.bmp,499.0,1.0,left
munar2015common,3,84ms,2013,06,09,4.0,alex,12,m,chimpanzee,1.0,16.0,89.0,10:18:34,2.0,Block_2-Block_1,block2,1327.0,sharneu_cookie.bmp,rouneu_cookie.bmp,510.0,0.0,right
munar2015common,3,84ms,2013,08,02,5.0,lome,11,m,chimpanzee,1.0,16.0,81.0,11:27:18,2.0,Block_2-Block_1,block2,6969.0,sharneu_bundtpan.bmp,rouneu_bundtpan.bmp,1094.0,0.0,left
munar2015common,3,84ms,2013,08,02,6.0,kofi,8,m,chimpanzee,1.0,16.0,91.0,10:57:42,2.0,Block_2-Block_1,block2,14671.0,rouneu_cuttingboard.bmp,sharneu_cuttingboard.bmp,939.0,0.0,left
munar2015common,3,84ms,2013,08,02,7.0,lobo,9,m,chimpanzee,1.0,16.0,64.0,10:29:51,1.0,Block_1-Block_2,block1,722.0,sharneu_mailbox.bmp,sharneu_printer.bmp,6983.0,1.0,right
munar2015common,3,84ms,2013,09,06,8.0,kibara,9,f,gorilla,1.0,16.0,135.0,09:01:01,2.0,Block_2-Block_1,block2,1970.0,sharneu_nailpolish.bmp,sharneu_lipstick.bmp,498.0,1.0,right
munar2015common,3,84ms,2013,09,06,9.0,viringika,18,f,gorilla,1.0,16.0,138.0,09:21:47,2.0,Block_2-Block_1,block2,2112.0,sharneu_remote.bmp,sharneu_phonecordless.bmp,444.0,1.0,left
munar2015common,3,84ms,2013,06,09,2.0,jahaga,20,f,chimpanzee,1.0,17.0,67.0,09:40:02,1.0,Block_1-Block_2,block1,534.0,sharneu_radioantique.bmp,sharneu_toaster.bmp,600.0,0.0,left
munar2015common,3,84ms,2013,06,09,3.0,fifi,20,f,chimpanzee,1.0,17.0,26.0,09:58:48,1.0,Block_1-Block_2,block1,6225.0,sharneu_leaf.bmp,rouneu_leaf.bmp,591.0,0.0,left
munar2015common,3,84ms,2013,06,09,4.0,alex,12,m,chimpanzee,1.0,17.0,88.0,10:18:34,2.0,Block_2-Block_1,block2,615.0,sharneu_chocolate.bmp,rouneu_chocolate.bmp,589.0,0.0,left
munar2015common,3,84ms,2013,08,02,5.0,lome,11,m,chimpanzee,1.0,17.0,142.0,11:27:18,2.0,Block_2-Block_1,block2,879.0,sharneu_shovel.bmp,sharneu_spatula.bmp,1473.0,1.0,left
munar2015common,3,84ms,2013,08,02,6.0,kofi,8,m,chimpanzee,1.0,17.0,104.0,10:57:42,2.0,Block_2-Block_1,block2,461.0,rouneu_table.bmp,sharneu_table.bmp,661.0,0.0,left
munar2015common,3,84ms,2013,08,02,7.0,lobo,9,m,chimpanzee,1.0,17.0,70.0,10:29:51,1.0,Block_1-Block_2,block1,2196.0,sharneu_spatula.bmp,sharneu_shovel.bmp,974.0,0.0,right
munar2015common,3,84ms,2013,09,06,8.0,kibara,9,f,gorilla,1.0,17.0,115.0,09:01:01,2.0,Block_2-Block_1,block2,4283.0,rouneu_vcr.bmp,rouneu_clockalarm.bmp,528.0,0.0,left
munar2015common,3,84ms,2013,09,06,9.0,viringika,18,f,gorilla,1.0,17.0,119.0,09:21:47,2.0,Block_2-Block_1,block2,3334.0,rouneu_purse2.bmp,rouneu_padlock.bmp,526.0,0.0,right
munar2015common,3,84ms,2013,06,09,2.0,jahaga,20,f,chimpanzee,1.0,18.0,32.0,09:40:02,1.0,Block_1-Block_2,block1,355.0,sharneu_table.bmp,rouneu_table.bmp,717.0,1.0,right
munar2015common,3,84ms,2013,06,09,3.0,fifi,20,f,chimpanzee,1.0,18.0,48.0,09:58:48,1.0,Block_1-Block_2,block1,312.0,rouneu_phonecordless.bmp,rouneu_remote.bmp,502.0,1.0,left
munar2015common,3,84ms,2013,06,09,4.0,alex,12,m,chimpanzee,1.0,18.0,108.0,10:18:34,2.0,Block_2-Block_1,block2,460.0,rouneu_windchime.bmp,sharneu_windchime.bmp,620.0,1.0,left
munar2015common,3,84ms,2013,08,02,5.0,lome,11,m,chimpanzee,1.0,18.0,111.0,11:27:18,2.0,Block_2-Block_1,block2,2831.0,rouneu_lantern.bmp,rouneu_battery.bmp,2058.0,0.0,left
munar2015common,3,84ms,2013,08,02,6.0,kofi,8,m,chimpanzee,1.0,18.0,108.0,10:57:42,2.0,Block_2-Block_1,block2,549.0,rouneu_windchime.bmp,sharneu_windchime.bmp,569.0,1.0,left
munar2015common,3,84ms,2013,08,02,7.0,lobo,9,m,chimpanzee,1.0,18.0,33.0,10:29:51,1.0,Block_1-Block_2,block1,812.0,sharneu_tent.bmp,rouneu_tent.bmp,659.0,1.0,right
munar2015common,3,84ms,2013,09,06,8.0,kibara,9,f,gorilla,1.0,18.0,126.0,09:01:01,2.0,Block_2-Block_1,block2,1374.0,rouneu_camera.bmp,rouneu_television.bmp,527.0,1.0,right
munar2015common,3,84ms,2013,09,06,9.0,viringika,18,f,gorilla,1.0,18.0,113.0,09:21:47,2.0,Block_2-Block_1,block2,1746.0,rouneu_pda.bmp,rouneu_calculator.bmp,441.0,1.0,left
munar2015common,3,84ms,2013,06,09,2.0,jahaga,20,f,chimpanzee,1.0,19.0,14.0,09:40:02,1.0,Block_1-Block_2,block1,1086.0,rouneu_cheese.bmp,sharneu_cheese.bmp,283.0,1.0,right
munar2015common,3,84ms,2013,06,09,3.0,fifi,20,f,chimpanzee,1.0,19.0,1.0,09:58:48,1.0,Block_1-Block_2,block1,1103.0,rouneu_basket.bmp,sharneu_basket.bmp,413.0,0.0,left
munar2015common,3,84ms,2013,06,09,4.0,alex,12,m,chimpanzee,1.0,19.0,104.0,10:18:34,2.0,Block_2-Block_1,block2,2568.0,rouneu_table.bmp,sharneu_table.bmp,1141.0,0.0,right
munar2015common,3,84ms,2013,08,02,5.0,lome,11,m,chimpanzee,1.0,19.0,84.0,11:27:18,2.0,Block_2-Block_1,block2,233.0,sharneu_candletray.bmp,rouneu_candletray.bmp,560.0,0.0,right
munar2015common,3,84ms,2013,08,02,6.0,kofi,8,m,chimpanzee,1.0,19.0,122.0,10:57:42,2.0,Block_2-Block_1,block2,3600.0,rouneu_speaker.bmp,rouneu_recycle.bmp,701.0,0.0,left
munar2015common,3,84ms,2013,08,02,7.0,lobo,9,m,chimpanzee,1.0,19.0,57.0,10:29:51,1.0,Block_1-Block_2,block1,2377.0,sharneu_battery.bmp,sharneu_lantern.bmp,881.0,0.0,right
munar2015common,3,84ms,2013,09,06,8.0,kibara,9,f,gorilla,1.0,19.0,110.0,09:01:01,2.0,Block_2-Block_1,block2,899.0,rouneu_pizza.bmp,rouneu_ashtray.bmp,692.0,0.0,right
munar2015common,3,84ms,2013,09,06,9.0,viringika,18,f,gorilla,1.0,19.0,88.0,09:21:47,2.0,Block_2-Block_1,block2,4604.0,sharneu_chocolate.bmp,rouneu_chocolate.bmp,847.0,1.0,left
munar2015common,3,84ms,2013,06,09,2.0,jahaga,20,f,chimpanzee,1.0,20.0,30.0,09:40:02,1.0,Block_1-Block_2,block1,824.0,sharneu_shades.bmp,rouneu_shades.bmp,287.0,0.0,right
munar2015common,3,84ms,2013,06,09,3.0,fifi,20,f,chimpanzee,1.0,20.0,63.0,09:58:48,1.0,Block_1-Block_2,block1,41.0,sharneu_lipstick.bmp,sharneu_nailpolish.bmp,1258.0,1.0,right
munar2015common,3,84ms,2013,06,09,4.0,alex,12,m,chimpanzee,1.0,20.0,102.0,10:18:34,2.0,Block_2-Block_1,block2,213.0,rouneu_shades.bmp,sharneu_shades.bmp,523.0,1.0,left
munar2015common,3,84ms,2013,08,02,5.0,lome,11,m,chimpanzee,1.0,20.0,126.0,11:27:18,2.0,Block_2-Block_1,block2,1028.0,rouneu_camera.bmp,rouneu_television.bmp,562.0,1.0,right
munar2015common,3,84ms,2013,08,02,6.0,kofi,8,m,chimpanzee,1.0,20.0,115.0,10:57:42,2.0,Block_2-Block_1,block2,13275.0,rouneu_vcr.bmp,rouneu_clockalarm.bmp,463.0,1.0,left
munar2015common,3,84ms,2013,08,02,7.0,lobo,9,m,chimpanzee,1.0,20.0,26.0,10:29:51,1.0,Block_1-Block_2,block1,5049.0,sharneu_leaf.bmp,rouneu_leaf.bmp,617.0,1.0,right
munar2015common,3,84ms,2013,09,06,8.0,kibara,9,f,gorilla,1.0,20.0,144.0,09:01:01,2.0,Block_2-Block_1,block2,842.0,sharneu_camera.bmp,sharneu_television.bmp,574.0,1.0,right
munar2015common,3,84ms,2013,09,06,9.0,viringika,18,f,gorilla,1.0,20.0,85.0,09:21:47,2.0,Block_2-Block_1,block2,1537.0,sharneu_canister.bmp,rouneu_canister.bmp,353.0,0.0,left
munar2015common,3,84ms,2013,06,09,2.0,jahaga,20,f,chimpanzee,1.0,21.0,63.0,09:40:02,1.0,Block_1-Block_2,block1,2088.0,sharneu_lipstick.bmp,sharneu_nailpolish.bmp,365.0,1.0,left
munar2015common,3,84ms,2013,06,09,3.0,fifi,20,f,chimpanzee,1.0,21.0,13.0,09:58:48,1.0,Block_1-Block_2,block1,1503.0,rouneu_canister.bmp,sharneu_canister.bmp,714.0,1.0,left
munar2015common,3,84ms,2013,06,09,4.0,alex,12,m,chimpanzee,1.0,21.0,134.0,10:18:34,2.0,Block_2-Block_1,block2,2027.0,sharneu_officechair.bmp,sharneu_couch.bmp,1132.0,0.0,right
munar2015common,3,84ms,2013,08,02,5.0,lome,11,m,chimpanzee,1.0,21.0,131.0,11:27:18,2.0,Block_2-Block_1,block2,3020.0,sharneu_pda.bmp,sharneu_calculator.bmp,444.0,0.0,right
munar2015common,3,84ms,2013,08,02,6.0,kofi,8,m,chimpanzee,1.0,21.0,102.0,10:57:42,2.0,Block_2-Block_1,block2,6334.0,rouneu_shades.bmp,sharneu_shades.bmp,493.0,1.0,right
munar2015common,3,84ms,2013,08,02,7.0,lobo,9,m,chimpanzee,1.0,21.0,14.0,10:29:51,1.0,Block_1-Block_2,block1,9094.0,rouneu_cheese.bmp,sharneu_cheese.bmp,700.0,0.0,right
munar2015common,3,84ms,2013,09,06,8.0,kibara,9,f,gorilla,1.0,21.0,82.0,09:01:01,2.0,Block_2-Block_1,block2,5481.0,sharneu_butterfly.bmp,rouneu_butterfly.bmp,823.0,1.0,left
munar2015common,3,84ms,2013,09,06,9.0,viringika,18,f,gorilla,1.0,21.0,120.0,09:21:47,2.0,Block_2-Block_1,block2,2485.0,rouneu_remote.bmp,rouneu_phonecordless.bmp,362.0,0.0,left
munar2015common,3,84ms,2013,06,09,2.0,jahaga,20,f,chimpanzee,1.0,22.0,69.0,09:40:02,1.0,Block_1-Block_2,block1,397.0,sharneu_scrubbrush.bmp,sharneu_sponge.bmp,353.0,0.0,left
munar2015common,3,84ms,2013,06,09,3.0,fifi,20,f,chimpanzee,1.0,22.0,66.0,09:58:48,1.0,Block_1-Block_2,block1,4685.0,sharneu_phonecordless.bmp,sharneu_remote.bmp,673.0,0.0,left
munar2015common,3,84ms,2013,06,09,4.0,alex,12,m,chimpanzee,1.0,22.0,95.0,10:18:34,2.0,Block_2-Block_1,block2,1492.0,rouneu_flowerpot.bmp,sharneu_flowerpot.bmp,449.0,1.0,left
munar2015common,3,84ms,2013,08,02,5.0,lome,11,m,chimpanzee,1.0,22.0,92.0,11:27:18,2.0,Block_2-Block_1,block2,578.0,rouneu_figureblock.bmp,sharneu_figureblock.bmp,832.0,1.0,left
munar2015common,3,84ms,2013,08,02,6.0,kofi,8,m,chimpanzee,1.0,22.0,113.0,10:57:42,2.0,Block_2-Block_1,block2,8267.0,rouneu_pda.bmp,rouneu_calculator.bmp,803.0,0.0,right
munar2015common,3,84ms,2013,08,02,7.0,lobo,9,m,chimpanzee,1.0,22.0,48.0,10:29:51,1.0,Block_1-Block_2,block1,1372.0,rouneu_phonecordless.bmp,rouneu_remote.bmp,652.0,1.0,right
munar2015common,3,84ms,2013,09,06,8.0,kibara,9,f,gorilla,1.0,22.0,116.0,09:01:01,2.0,Block_2-Block_1,block2,2609.0,rouneu_officechair.bmp,rouneu_couch.bmp,639.0,0.0,right
munar2015common,3,84ms,2013,09,06,9.0,viringika,18,f,gorilla,1.0,22.0,108.0,09:21:47,2.0,Block_2-Block_1,block2,2512.0,rouneu_windchime.bmp,sharneu_windchime.bmp,422.0,1.0,left
munar2015common,3,84ms,2013,06,09,2.0,jahaga,20,f,chimpanzee,1.0,23.0,37.0,09:40:02,1.0,Block_1-Block_2,block1,448.0,rouneu_answering.bmp,rouneu_phone.bmp,388.0,1.0,left
munar2015common,3,84ms,2013,06,09,3.0,fifi,20,f,chimpanzee,1.0,23.0,25.0,09:58:48,1.0,Block_1-Block_2,block1,349.0,sharneu_gem.bmp,rouneu_gem.bmp,838.0,1.0,right
munar2015common,3,84ms,2013,06,09,4.0,alex,12,m,chimpanzee,1.0,23.0,110.0,10:18:34,2.0,Block_2-Block_1,block2,2591.0,rouneu_pizza.bmp,rouneu_ashtray.bmp,538.0,1.0,left
munar2015common,3,84ms,2013,08,02,5.0,lome,11,m,chimpanzee,1.0,23.0,125.0,11:27:18,2.0,Block_2-Block_1,block2,3693.0,rouneu_teakettle.bmp,rouneu_teapot.bmp,861.0,1.0,right
munar2015common,3,84ms,2013,08,02,6.0,kofi,8,m,chimpanzee,1.0,23.0,133.0,10:57:42,2.0,Block_2-Block_1,block2,808.0,sharneu_vcr.bmp,sharneu_clockalarm.bmp,858.0,1.0,left
munar2015common,3,84ms,2013,08,02,7.0,lobo,9,m,chimpanzee,1.0,23.0,47.0,10:29:51,1.0,Block_1-Block_2,block1,5607.0,rouneu_padlock.bmp,rouneu_purse2.bmp,665.0,1.0,right
munar2015common,3,84ms,2013,09,06,8.0,kibara,9,f,gorilla,1.0,23.0,98.0,09:01:01,2.0,Block_2-Block_1,block2,1146.0,rouneu_leaf.bmp,sharneu_leaf.bmp,545.0,0.0,right
munar2015common,3,84ms,2013,09,06,9.0,viringika,18,f,gorilla,1.0,23.0,140.0,09:21:47,2.0,Block_2-Block_1,block2,3414.0,sharneu_speaker.bmp,sharneu_recyclebin.bmp,512.0,0.0,left
munar2015common,3,84ms,2013,06,09,2.0,jahaga,20,f,chimpanzee,1.0,24.0,17.0,09:40:02,1.0,Block_1-Block_2,block1,772.0,rouneu_cookie.bmp,sharneu_cookie.bmp,306.0,0.0,right
munar2015common,3,84ms,2013,06,09,3.0,fifi,20,f,chimpanzee,1.0,24.0,24.0,09:58:48,1.0,Block_1-Block_2,block1,1389.0,sharneu_flowersandpot.bmp,rouneu_flowersandpot.bmp,1116.0,0.0,left
munar2015common,3,84ms,2013,06,09,4.0,alex,12,m,chimpanzee,1.0,24.0,117.0,10:18:34,2.0,Block_2-Block_1,block2,997.0,rouneu_nailpolish.bmp,rouneu_lipstick.bmp,645.0,0.0,right
munar2015common,3,84ms,2013,08,02,5.0,lome,11,m,chimpanzee,1.0,24.0,138.0,11:27:18,2.0,Block_2-Block_1,block2,1846.0,sharneu_remote.bmp,sharneu_phonecordless.bmp,1406.0,0.0,left
munar2015common,3,84ms,2013,08,02,6.0,kofi,8,m,chimpanzee,1.0,24.0,99.0,10:57:42,2.0,Block_2-Block_1,block2,9233.0,rouneu_mirrorbig.bmp,sharneu_mirrorbig.bmp,473.0,0.0,right
munar2015common,3,84ms,2013,08,02,7.0,lobo,9,m,chimpanzee,1.0,24.0,25.0,10:29:51,1.0,Block_1-Block_2,block1,4280.0,sharneu_gem.bmp,rouneu_gem.bmp,731.0,0.0,right
munar2015common,3,84ms,2013,09,06,8.0,kibara,9,f,gorilla,1.0,24.0,113.0,09:01:01,2.0,Block_2-Block_1,block2,1169.0,rouneu_pda.bmp,rouneu_calculator.bmp,463.0,1.0,left
munar2015common,3,84ms,2013,09,06,9.0,viringika,18,f,gorilla,1.0,24.0,143.0,09:21:47,2.0,Block_2-Block_1,block2,1956.0,sharneu_teakettle.bmp,sharneu_teapot.bmp,350.0,1.0,left
munar2015common,3,84ms,2013,06,09,2.0,jahaga,20,f,chimpanzee,1.0,25.0,4.0,09:40:02,1.0,Block_1-Block_2,block1,570.0,rouneu_birdhouse.bmp,sharneu_birdhouse.bmp,324.0,0.0,right
munar2015common,3,84ms,2013,06,09,3.0,fifi,20,f,chimpanzee,1.0,25.0,65.0,09:58:48,1.0,Block_1-Block_2,block1,701.0,sharneu_padlock.bmp,sharneu_purse2.bmp,632.0,1.0,left
munar2015common,3,84ms,2013,06,09,4.0,alex,12,m,chimpanzee,1.0,25.0,77.0,10:18:34,2.0,Block_2-Block_1,block2,1515.0,sharneu_briefcase.bmp,rouneu_briefcase.bmp,539.0,0.0,left
munar2015common,3,84ms,2013,08,02,5.0,lome,11,m,chimpanzee,1.0,25.0,132.0,11:27:18,2.0,Block_2-Block_1,block2,331.0,sharneu_watch.bmp,sharneu_clock.bmp,518.0,0.0,left
munar2015common,3,84ms,2013,08,02,6.0,kofi,8,m,chimpanzee,1.0,25.0,114.0,10:57:42,2.0,Block_2-Block_1,block2,1380.0,rouneu_watch.bmp,rouneu_clock.bmp,608.0,0.0,right
munar2015common,3,84ms,2013,08,02,7.0,lobo,9,m,chimpanzee,1.0,25.0,65.0,10:29:51,1.0,Block_1-Block_2,block1,599.0,sharneu_padlock.bmp,sharneu_purse2.bmp,4906.0,1.0,left
munar2015common,3,84ms,2013,09,06,8.0,kibara,9,f,gorilla,1.0,25.0,74.0,09:01:01,2.0,Block_2-Block_1,block2,4025.0,sharneu_basket2.bmp,rouneu_basket2.bmp,543.0,1.0,left
munar2015common,3,84ms,2013,09,06,9.0,viringika,18,f,gorilla,1.0,25.0,127.0,09:21:47,2.0,Block_2-Block_1,block2,2700.0,sharneu_phone.bmp,sharneu_answering.bmp,341.0,0.0,left
munar2015common,3,84ms,2013,06,09,2.0,jahaga,20,f,chimpanzee,1.0,26.0,65.0,09:40:02,1.0,Block_1-Block_2,block1,2111.0,sharneu_padlock.bmp,sharneu_purse2.bmp,332.0,1.0,right
munar2015common,3,84ms,2013,06,09,3.0,fifi,20,f,chimpanzee,1.0,26.0,28.0,09:58:48,1.0,Block_1-Block_2,block1,1281.0,sharneu_pan.bmp,rouneu_pan.bmp,448.0,0.0,left
munar2015common,3,84ms,2013,06,09,4.0,alex,12,m,chimpanzee,1.0,26.0,87.0,10:18:34,2.0,Block_2-Block_1,block2,640.0,sharneu_chineselantern.bmp,rouneu_chineselantern.bmp,477.0,1.0,right
munar2015common,3,84ms,2013,08,02,5.0,lome,11,m,chimpanzee,1.0,26.0,143.0,11:27:18,2.0,Block_2-Block_1,block2,786.0,sharneu_teakettle.bmp,sharneu_teapot.bmp,924.0,1.0,right
munar2015common,3,84ms,2013,08,02,6.0,kofi,8,m,chimpanzee,1.0,26.0,86.0,10:57:42,2.0,Block_2-Block_1,block2,472.0,sharneu_cheese.bmp,rouneu_cheese.bmp,696.0,1.0,right
munar2015common,3,84ms,2013,08,02,7.0,lobo,9,m,chimpanzee,1.0,26.0,23.0,10:29:51,1.0,Block_1-Block_2,block1,9883.0,sharneu_flowerpot.bmp,rouneu_flowerpot.bmp,3069.0,0.0,right
munar2015common,3,84ms,2013,09,06,8.0,kibara,9,f,gorilla,1.0,26.0,96.0,09:01:01,2.0,Block_2-Block_1,block2,3602.0,rouneu_flowersandpot.bmp,sharneu_flowersandpot.bmp,520.0,0.0,left
munar2015common,3,84ms,2013,09,06,9.0,viringika,18,f,gorilla,1.0,26.0,100.0,09:21:47,2.0,Block_2-Block_1,block2,4132.0,rouneu_pan.bmp,sharneu_pan.bmp,341.0,1.0,left
munar2015common,3,84ms,2013,06,09,2.0,jahaga,20,f,chimpanzee,1.0,27.0,11.0,09:40:02,1.0,Block_1-Block_2,block1,687.0,rouneu_candle.bmp,sharneu_candle.bmp,1773.0,0.0,right
munar2015common,3,84ms,2013,06,09,3.0,fifi,20,f,chimpanzee,1.0,27.0,50.0,09:58:48,1.0,Block_1-Block_2,block1,62.0,rouneu_recycle.bmp,rouneu_speaker.bmp,632.0,0.0,left
munar2015common,3,84ms,2013,06,09,4.0,alex,12,m,chimpanzee,1.0,27.0,100.0,10:18:34,2.0,Block_2-Block_1,block2,1146.0,rouneu_pan.bmp,sharneu_pan.bmp,393.0,1.0,left
munar2015common,3,84ms,2013,08,02,5.0,lome,11,m,chimpanzee,1.0,27.0,88.0,11:27:18,2.0,Block_2-Block_1,block2,4171.0,sharneu_chocolate.bmp,rouneu_chocolate.bmp,705.0,1.0,right
munar2015common,3,84ms,2013,08,02,6.0,kofi,8,m,chimpanzee,1.0,27.0,111.0,10:57:42,2.0,Block_2-Block_1,block2,17799.0,rouneu_lantern.bmp,rouneu_battery.bmp,1025.0,0.0,left
munar2015common,3,84ms,2013,08,02,7.0,lobo,9,m,chimpanzee,1.0,27.0,31.0,10:29:51,1.0,Block_1-Block_2,block1,47.0,sharneu_stool.bmp,rouneu_stool.bmp,2111.0,0.0,left
munar2015common,3,84ms,2013,09,06,8.0,kibara,9,f,gorilla,1.0,27.0,133.0,09:01:01,2.0,Block_2-Block_1,block2,2223.0,sharneu_vcr.bmp,sharneu_clockalarm.bmp,1201.0,0.0,right
munar2015common,3,84ms,2013,09,06,9.0,viringika,18,f,gorilla,1.0,27.0,96.0,09:21:47,2.0,Block_2-Block_1,block2,2940.0,rouneu_flowersandpot.bmp,sharneu_flowersandpot.bmp,329.0,1.0,left
munar2015common,3,84ms,2013,06,09,2.0,jahaga,20,f,chimpanzee,1.0,28.0,8.0,09:40:02,1.0,Block_1-Block_2,block1,393.0,rouneu_bucket.bmp,sharneu_bucket.bmp,368.0,1.0,left
munar2015common,3,84ms,2013,06,09,3.0,fifi,20,f,chimpanzee,1.0,28.0,38.0,09:58:48,1.0,Block_1-Block_2,block1,594.0,rouneu_ashtray.bmp,rouneu_pizza.bmp,491.0,1.0,left
munar2015common,3,84ms,2013,06,09,4.0,alex,12,m,chimpanzee,1.0,28.0,135.0,10:18:34,2.0,Block_2-Block_1,block2,2926.0,sharneu_nailpolish.bmp,sharneu_lipstick.bmp,860.0,0.0,right
munar2015common,3,84ms,2013,08,02,5.0,lome,11,m,chimpanzee,1.0,28.0,103.0,11:27:18,2.0,Block_2-Block_1,block2,3910.0,rouneu_stool.bmp,sharneu_stool.bmp,642.0,0.0,right
munar2015common,3,84ms,2013,08,02,6.0,kofi,8,m,chimpanzee,1.0,28.0,73.0,10:57:42,2.0,Block_2-Block_1,block2,343.0,sharneu_basket.bmp,rouneu_basket.bmp,470.0,1.0,left
munar2015common,3,84ms,2013,08,02,7.0,lobo,9,m,chimpanzee,1.0,28.0,43.0,10:29:51,1.0,Block_1-Block_2,block1,56.0,rouneu_clockalarm.bmp,rouneu_vcr.bmp,752.0,1.0,left
munar2015common,3,84ms,2013,09,06,8.0,kibara,9,f,gorilla,1.0,28.0,119.0,09:01:01,2.0,Block_2-Block_1,block2,833.0,rouneu_purse2.bmp,rouneu_padlock.bmp,497.0,1.0,left
munar2015common,3,84ms,2013,09,06,9.0,viringika,18,f,gorilla,1.0,28.0,92.0,09:21:47,2.0,Block_2-Block_1,block2,1212.0,rouneu_figureblock.bmp,sharneu_figureblock.bmp,459.0,0.0,right
munar2015common,3,84ms,2013,06,09,2.0,jahaga,20,f,chimpanzee,1.0,29.0,15.0,09:40:02,1.0,Block_1-Block_2,block1,735.0,rouneu_chineselantern.bmp,sharneu_chineselantern.bmp,351.0,1.0,left
munar2015common,3,84ms,2013,06,09,3.0,fifi,20,f,chimpanzee,1.0,29.0,2.0,09:58:48,1.0,Block_1-Block_2,block1,1482.0,rouneu_basket2.bmp,sharneu_basket2.bmp,459.0,1.0,left
munar2015common,3,84ms,2013,06,09,4.0,alex,12,m,chimpanzee,1.0,29.0,118.0,10:18:34,2.0,Block_2-Block_1,block2,615.0,rouneu_printer.bmp,rouneu_mailbox.bmp,489.0,0.0,left
munar2015common,3,84ms,2013,08,02,5.0,lome,11,m,chimpanzee,1.0,29.0,124.0,11:27:18,2.0,Block_2-Block_1,block2,183.0,rouneu_shovel.bmp,rouneu_spatula.bmp,350.0,1.0,left
munar2015common,3,84ms,2013,08,02,6.0,kofi,8,m,chimpanzee,1.0,29.0,76.0,10:57:42,2.0,Block_2-Block_1,block2,7661.0,sharneu_birdhouse.bmp,rouneu_birdhouse.bmp,517.0,1.0,left
munar2015common,3,84ms,2013,08,02,7.0,lobo,9,m,chimpanzee,1.0,29.0,50.0,10:29:51,1.0,Block_1-Block_2,block1,1640.0,rouneu_recycle.bmp,rouneu_speaker.bmp,727.0,1.0,left
munar2015common,3,84ms,2013,09,06,8.0,kibara,9,f,gorilla,1.0,29.0,142.0,09:01:01,2.0,Block_2-Block_1,block2,4200.0,sharneu_shovel.bmp,sharneu_spatula.bmp,1260.0,1.0,left
munar2015common,3,84ms,2013,09,06,9.0,viringika,18,f,gorilla,1.0,29.0,78.0,09:21:47,2.0,Block_2-Block_1,block2,3058.0,sharneu_brush.bmp,rouneu_brush.bmp,470.0,1.0,left
munar2015common,3,84ms,2013,06,09,2.0,jahaga,20,f,chimpanzee,1.0,30.0,43.0,09:40:02,1.0,Block_1-Block_2,block1,752.0,rouneu_clockalarm.bmp,rouneu_vcr.bmp,351.0,0.0,left
munar2015common,3,84ms,2013,06,09,3.0,fifi,20,f,chimpanzee,1.0,30.0,14.0,09:58:48,1.0,Block_1-Block_2,block1,14803.0,rouneu_cheese.bmp,sharneu_cheese.bmp,918.0,0.0,left
munar2015common,3,84ms,2013,06,09,4.0,alex,12,m,chimpanzee,1.0,30.0,121.0,10:18:34,2.0,Block_2-Block_1,block2,220.0,rouneu_toaster.bmp,rouneu_radioantique.bmp,773.0,1.0,left
munar2015common,3,84ms,2013,08,02,5.0,lome,11,m,chimpanzee,1.0,30.0,79.0,11:27:18,2.0,Block_2-Block_1,block2,2534.0,sharneu_brushsmall.bmp,rouneu_brushsmall.bmp,821.0,0.0,left
munar2015common,3,84ms,2013,08,02,6.0,kofi,8,m,chimpanzee,1.0,30.0,90.0,10:57:42,2.0,Block_2-Block_1,block2,19464.0,sharneu_cushion.bmp,rouneu_cushion.bmp,604.0,0.0,right
munar2015common,3,84ms,2013,08,02,7.0,lobo,9,m,chimpanzee,1.0,30.0,63.0,10:29:51,1.0,Block_1-Block_2,block1,4625.0,sharneu_lipstick.bmp,sharneu_nailpolish.bmp,697.0,0.0,left
munar2015common,3,84ms,2013,09,06,8.0,kibara,9,f,gorilla,1.0,30.0,90.0,09:01:01,2.0,Block_2-Block_1,block2,3931.0,sharneu_cushion.bmp,rouneu_cushion.bmp,533.0,0.0,right
munar2015common,3,84ms,2013,09,06,9.0,viringika,18,f,gorilla,1.0,30.0,137.0,09:21:47,2.0,Block_2-Block_1,block2,3178.0,sharneu_purse2.bmp,sharneu_padlock.bmp,337.0,0.0,left
munar2015common,3,84ms,2013,06,09,2.0,jahaga,20,f,chimpanzee,1.0,31.0,56.0,09:40:02,1.0,Block_1-Block_2,block1,355.0,sharneu_ashtray.bmp,sharneu_pizza.bmp,1296.0,0.0,right
munar2015common,3,84ms,2013,06,09,3.0,fifi,20,f,chimpanzee,1.0,31.0,10.0,09:58:48,1.0,Block_1-Block_2,block1,236.0,rouneu_butterfly.bmp,sharneu_butterfly.bmp,642.0,0.0,left
munar2015common,3,84ms,2013,06,09,4.0,alex,12,m,chimpanzee,1.0,31.0,86.0,10:18:34,2.0,Block_2-Block_1,block2,3478.0,sharneu_cheese.bmp,rouneu_cheese.bmp,423.0,0.0,right
munar2015common,3,84ms,2013,08,02,5.0,lome,11,m,chimpanzee,1.0,31.0,120.0,11:27:18,2.0,Block_2-Block_1,block2,529.0,rouneu_remote.bmp,rouneu_phonecordless.bmp,876.0,1.0,left
munar2015common,3,84ms,2013,08,02,6.0,kofi,8,m,chimpanzee,1.0,31.0,84.0,10:57:42,2.0,Block_2-Block_1,block2,469.0,sharneu_candletray.bmp,rouneu_candletray.bmp,562.0,0.0,right
munar2015common,3,84ms,2013,08,02,7.0,lobo,9,m,chimpanzee,1.0,31.0,16.0,10:29:51,1.0,Block_1-Block_2,block1,728.0,rouneu_chocolate.bmp,sharneu_chocolate.bmp,4018.0,1.0,left
munar2015common,3,84ms,2013,09,06,8.0,kibara,9,f,gorilla,1.0,31.0,95.0,09:01:01,2.0,Block_2-Block_1,block2,1175.0,rouneu_flowerpot.bmp,sharneu_flowerpot.bmp,490.0,1.0,right
munar2015common,3,84ms,2013,09,06,9.0,viringika,18,f,gorilla,1.0,31.0,111.0,09:21:47,2.0,Block_2-Block_1,block2,3309.0,rouneu_lantern.bmp,rouneu_battery.bmp,360.0,0.0,right
munar2015common,3,84ms,2013,06,09,2.0,jahaga,20,f,chimpanzee,1.0,32.0,25.0,09:40:02,1.0,Block_1-Block_2,block1,420.0,sharneu_gem.bmp,rouneu_gem.bmp,344.0,1.0,right
munar2015common,3,84ms,2013,06,09,3.0,fifi,20,f,chimpanzee,1.0,32.0,4.0,09:58:48,1.0,Block_1-Block_2,block1,154.0,rouneu_birdhouse.bmp,sharneu_birdhouse.bmp,444.0,1.0,right
munar2015common,3,84ms,2013,06,09,4.0,alex,12,m,chimpanzee,1.0,32.0,99.0,10:18:34,2.0,Block_2-Block_1,block2,521.0,rouneu_mirrorbig.bmp,sharneu_mirrorbig.bmp,824.0,1.0,right
munar2015common,3,84ms,2013,08,02,5.0,lome,11,m,chimpanzee,1.0,32.0,76.0,11:27:18,2.0,Block_2-Block_1,block2,3277.0,sharneu_birdhouse.bmp,rouneu_birdhouse.bmp,722.0,0.0,left
munar2015common,3,84ms,2013,08,02,6.0,kofi,8,m,chimpanzee,1.0,32.0,81.0,10:57:42,2.0,Block_2-Block_1,block2,460.0,sharneu_bundtpan.bmp,rouneu_bundtpan.bmp,5000.0,1.0,left
munar2015common,3,84ms,2013,08,02,7.0,lobo,9,m,chimpanzee,1.0,32.0,28.0,10:29:51,1.0,Block_1-Block_2,block1,3017.0,sharneu_pan.bmp,rouneu_pan.bmp,935.0,0.0,left
munar2015common,3,84ms,2013,09,06,8.0,kibara,9,f,gorilla,1.0,32.0,84.0,09:01:01,2.0,Block_2-Block_1,block2,1241.0,sharneu_candletray.bmp,rouneu_candletray.bmp,728.0,0.0,left
munar2015common,3,84ms,2013,09,06,9.0,viringika,18,f,gorilla,1.0,32.0,105.0,09:21:47,2.0,Block_2-Block_1,block2,2061.0,rouneu_tent.bmp,sharneu_tent.bmp,386.0,1.0,left
munar2015common,3,84ms,2013,06,09,2.0,jahaga,20,f,chimpanzee,1.0,33.0,60.0,09:40:02,1.0,Block_1-Block_2,block1,636.0,sharneu_clock.bmp,sharneu_watch.bmp,283.0,0.0,right
munar2015common,3,84ms,2013,06,09,3.0,fifi,20,f,chimpanzee,1.0,33.0,20.0,09:58:48,1.0,Block_1-Block_2,block1,2367.0,sharneu_figureblock.bmp,rouneu_figureblock.bmp,491.0,1.0,left
munar2015common,3,84ms,2013,06,09,4.0,alex,12,m,chimpanzee,1.0,33.0,142.0,10:18:34,2.0,Block_2-Block_1,block2,1211.0,sharneu_shovel.bmp,sharneu_spatula.bmp,551.0,0.0,left
munar2015common,3,84ms,2013,08,02,5.0,lome,11,m,chimpanzee,1.0,33.0,108.0,11:27:18,2.0,Block_2-Block_1,block2,830.0,rouneu_windchime.bmp,sharneu_windchime.bmp,497.0,0.0,right
munar2015common,3,84ms,2013,08,02,6.0,kofi,8,m,chimpanzee,1.0,33.0,88.0,10:57:42,2.0,Block_2-Block_1,block2,25640.0,sharneu_chocolate.bmp,rouneu_chocolate.bmp,509.0,1.0,left
munar2015common,3,84ms,2013,08,02,7.0,lobo,9,m,chimpanzee,1.0,33.0,58.0,10:29:51,1.0,Block_1-Block_2,block1,6716.0,sharneu_boxlock.bmp,sharneu_mirror.bmp,1658.0,0.0,left
munar2015common,3,84ms,2013,09,06,8.0,kibara,9,f,gorilla,1.0,33.0,131.0,09:01:01,2.0,Block_2-Block_1,block2,808.0,sharneu_pda.bmp,sharneu_calculator.bmp,509.0,0.0,right
munar2015common,3,84ms,2013,09,06,9.0,viringika,18,f,gorilla,1.0,33.0,141.0,09:21:47,2.0,Block_2-Block_1,block2,3617.0,sharneu_sponge.bmp,sharneu_scrubbrush.bmp,514.0,1.0,right
munar2015common,3,84ms,2013,06,09,2.0,jahaga,20,f,chimpanzee,1.0,34.0,50.0,09:40:02,1.0,Block_1-Block_2,block1,2054.0,rouneu_recycle.bmp,rouneu_speaker.bmp,325.0,1.0,right
munar2015common,3,84ms,2013,06,09,3.0,fifi,20,f,chimpanzee,1.0,34.0,56.0,09:58:48,1.0,Block_1-Block_2,block1,1613.0,sharneu_ashtray.bmp,sharneu_pizza.bmp,487.0,0.0,left
munar2015common,3,84ms,2013,06,09,4.0,alex,12,m,chimpanzee,1.0,34.0,94.0,10:18:34,2.0,Block_2-Block_1,block2,436.0,rouneu_flower.bmp,sharneu_flower.bmp,613.0,1.0,left
munar2015common,3,84ms,2013,08,02,5.0,lome,11,m,chimpanzee,1.0,34.0,129.0,11:27:18,2.0,Block_2-Block_1,block2,521.0,sharneu_lantern.bmp,sharneu_battery.bmp,595.0,1.0,right
munar2015common,3,84ms,2013,08,02,6.0,kofi,8,m,chimpanzee,1.0,34.0,141.0,10:57:42,2.0,Block_2-Block_1,block2,2726.0,sharneu_sponge.bmp,sharneu_scrubbrush.bmp,660.0,0.0,left
munar2015common,3,84ms,2013,08,02,7.0,lobo,9,m,chimpanzee,1.0,34.0,22.0,10:29:51,1.0,Block_1-Block_2,block1,913.0,sharneu_flower.bmp,rouneu_flower.bmp,1150.0,1.0,right
munar2015common,3,84ms,2013,09,06,8.0,kibara,9,f,gorilla,1.0,34.0,99.0,09:01:01,2.0,Block_2-Block_1,block2,1158.0,rouneu_mirrorbig.bmp,sharneu_mirrorbig.bmp,412.0,1.0,right
munar2015common,3,84ms,2013,09,06,9.0,viringika,18,f,gorilla,1.0,34.0,103.0,09:21:47,2.0,Block_2-Block_1,block2,1961.0,rouneu_stool.bmp,sharneu_stool.bmp,342.0,0.0,left
munar2015common,3,84ms,2013,06,09,2.0,jahaga,20,f,chimpanzee,1.0,35.0,72.0,09:40:02,1.0,Block_1-Block_2,block1,772.0,sharneu_television.bmp,sharneu_camera.bmp,315.0,0.0,right
munar2015common,3,84ms,2013,06,09,3.0,fifi,20,f,chimpanzee,1.0,35.0,43.0,09:58:48,1.0,Block_1-Block_2,block1,678.0,rouneu_clockalarm.bmp,rouneu_vcr.bmp,462.0,0.0,left
munar2015common,3,84ms,2013,06,09,4.0,alex,12,m,chimpanzee,1.0,35.0,137.0,10:18:34,2.0,Block_2-Block_1,block2,2042.0,sharneu_purse2.bmp,sharneu_padlock.bmp,649.0,1.0,left
munar2015common,3,84ms,2013,08,02,5.0,lome,11,m,chimpanzee,1.0,35.0,140.0,11:27:18,2.0,Block_2-Block_1,block2,2659.0,sharneu_speaker.bmp,sharneu_recyclebin.bmp,950.0,0.0,left
munar2015common,3,84ms,2013,08,02,6.0,kofi,8,m,chimpanzee,1.0,35.0,105.0,10:57:42,2.0,Block_2-Block_1,block2,528.0,rouneu_tent.bmp,sharneu_tent.bmp,562.0,0.0,left
munar2015common,3,84ms,2013,08,02,7.0,lobo,9,m,chimpanzee,1.0,35.0,1.0,10:29:51,1.0,Block_1-Block_2,block1,7055.0,rouneu_basket.bmp,sharneu_basket.bmp,1017.0,1.0,right
munar2015common,3,84ms,2013,09,06,8.0,kibara,9,f,gorilla,1.0,35.0,112.0,09:01:01,2.0,Block_2-Block_1,block2,4746.0,rouneu_mirror.bmp,rouneu_boxlock.bmp,563.0,1.0,left
munar2015common,3,84ms,2013,09,06,9.0,viringika,18,f,gorilla,1.0,35.0,133.0,09:21:47,2.0,Block_2-Block_1,block2,1530.0,sharneu_vcr.bmp,sharneu_clockalarm.bmp,450.0,0.0,right
munar2015common,3,84ms,2013,06,09,2.0,jahaga,20,f,chimpanzee,1.0,36.0,64.0,09:40:02,1.0,Block_1-Block_2,block1,873.0,sharneu_mailbox.bmp,sharneu_printer.bmp,667.0,1.0,right
munar2015common,3,84ms,2013,06,09,3.0,fifi,20,f,chimpanzee,1.0,36.0,53.0,09:58:48,1.0,Block_1-Block_2,block1,310.0,rouneu_teapot.bmp,rouneu_teakettle.bmp,440.0,1.0,left
munar2015common,3,84ms,2013,06,09,4.0,alex,12,m,chimpanzee,1.0,36.0,140.0,10:18:34,2.0,Block_2-Block_1,block2,1506.0,sharneu_speaker.bmp,sharneu_recyclebin.bmp,385.0,0.0,left
munar2015common,3,84ms,2013,08,02,5.0,lome,11,m,chimpanzee,1.0,36.0,130.0,11:27:18,2.0,Block_2-Block_1,block2,1365.0,sharneu_mirror.bmp,sharneu_boxlock.bmp,529.0,1.0,left
munar2015common,3,84ms,2013,08,02,6.0,kofi,8,m,chimpanzee,1.0,36.0,143.0,10:57:42,2.0,Block_2-Block_1,block2,140.0,sharneu_teakettle.bmp,sharneu_teapot.bmp,696.0,1.0,right
munar2015common,3,84ms,2013,08,02,7.0,lobo,9,m,chimpanzee,1.0,36.0,66.0,10:29:51,1.0,Block_1-Block_2,block1,4585.0,sharneu_phonecordless.bmp,sharneu_remote.bmp,2430.0,0.0,left
munar2015common,3,84ms,2013,09,06,8.0,kibara,9,f,gorilla,1.0,36.0,124.0,09:01:01,2.0,Block_2-Block_1,block2,3865.0,rouneu_shovel.bmp,rouneu_spatula.bmp,534.0,0.0,left
munar2015common,3,84ms,2013,09,06,9.0,viringika,18,f,gorilla,1.0,36.0,118.0,09:21:47,2.0,Block_2-Block_1,block2,2432.0,rouneu_printer.bmp,rouneu_mailbox.bmp,354.0,1.0,left
munar2015common,3,84ms,2013,06,09,2.0,jahaga,20,f,chimpanzee,1.0,37.0,18.0,09:40:02,1.0,Block_1-Block_2,block1,773.0,rouneu_cushion.bmp,sharneu_cushion.bmp,327.0,1.0,left
munar2015common,3,84ms,2013,06,09,3.0,fifi,20,f,chimpanzee,1.0,37.0,40.0,09:58:48,1.0,Block_1-Block_2,block1,1160.0,rouneu_boxlock.bmp,rouneu_mirror.bmp,881.0,0.0,left
munar2015common,3,84ms,2013,06,09,4.0,alex,12,m,chimpanzee,1.0,37.0,143.0,10:18:34,2.0,Block_2-Block_1,block2,466.0,sharneu_teakettle.bmp,sharneu_teapot.bmp,420.0,1.0,left
munar2015common,3,84ms,2013,08,02,5.0,lome,11,m,chimpanzee,1.0,37.0,100.0,11:27:18,2.0,Block_2-Block_1,block2,1690.0,rouneu_pan.bmp,sharneu_pan.bmp,717.0,1.0,left
munar2015common,3,84ms,2013,08,02,6.0,kofi,8,m,chimpanzee,1.0,37.0,89.0,10:57:42,2.0,Block_2-Block_1,block2,10912.0,sharneu_cookie.bmp,rouneu_cookie.bmp,438.0,0.0,right
munar2015common,3,84ms,2013,08,02,7.0,lobo,9,m,chimpanzee,1.0,37.0,5.0,10:29:51,1.0,Block_1-Block_2,block1,1658.0,rouneu_briefcase.bmp,sharneu_briefcase.bmp,7736.0,1.0,left
munar2015common,3,84ms,2013,09,06,8.0,kibara,9,f,gorilla,1.0,37.0,78.0,09:01:01,2.0,Block_2-Block_1,block2,721.0,sharneu_brush.bmp,rouneu_brush.bmp,490.0,0.0,right
munar2015common,3,84ms,2013,09,06,9.0,viringika,18,f,gorilla,1.0,37.0,114.0,09:21:47,2.0,Block_2-Block_1,block2,3825.0,rouneu_watch.bmp,rouneu_clock.bmp,460.0,0.0,right
munar2015common,3,84ms,2013,06,09,2.0,jahaga,20,f,chimpanzee,1.0,38.0,31.0,09:40:02,1.0,Block_1-Block_2,block1,579.0,sharneu_stool.bmp,rouneu_stool.bmp,353.0,0.0,left
munar2015common,3,84ms,2013,06,09,3.0,fifi,20,f,chimpanzee,1.0,38.0,61.0,09:58:48,1.0,Block_1-Block_2,block1,163.0,sharneu_clockalarm.bmp,sharneu_vcr.bmp,472.0,1.0,left
munar2015common,3,84ms,2013,06,09,4.0,alex,12,m,chimpanzee,1.0,38.0,119.0,10:18:34,2.0,Block_2-Block_1,block2,1068.0,rouneu_purse2.bmp,rouneu_padlock.bmp,592.0,0.0,left
munar2015common,3,84ms,2013,08,02,5.0,lome,11,m,chimpanzee,1.0,38.0,139.0,11:27:18,2.0,Block_2-Block_1,block2,2655.0,sharneu_toaster.bmp,sharneu_radioantique.bmp,3526.0,0.0,right
munar2015common,3,84ms,2013,08,02,6.0,kofi,8,m,chimpanzee,1.0,38.0,78.0,10:57:42,2.0,Block_2-Block_1,block2,449.0,sharneu_brush.bmp,rouneu_brush.bmp,559.0,1.0,right
munar2015common,3,84ms,2013,08,02,7.0,lobo,9,m,chimpanzee,1.0,38.0,27.0,10:29:51,1.0,Block_1-Block_2,block1,678.0,sharneu_mirrorbig.bmp,rouneu_mirrorbig.bmp,4142.0,0.0,left
munar2015common,3,84ms,2013,09,06,8.0,kibara,9,f,gorilla,1.0,38.0,109.0,09:01:01,2.0,Block_2-Block_1,block2,1012.0,rouneu_phone.bmp,rouneu_answering.bmp,414.0,1.0,right
munar2015common,3,84ms,2013,09,06,9.0,viringika,18,f,gorilla,1.0,38.0,91.0,09:21:47,2.0,Block_2-Block_1,block2,457.0,rouneu_cuttingboard.bmp,sharneu_cuttingboard.bmp,305.0,1.0,left
munar2015common,3,84ms,2013,06,09,2.0,jahaga,20,f,chimpanzee,1.0,39.0,44.0,09:40:02,1.0,Block_1-Block_2,block1,2788.0,rouneu_couch.bmp,rouneu_officechair.bmp,365.0,0.0,left
munar2015common,3,84ms,2013,06,09,3.0,fifi,20,f,chimpanzee,1.0,39.0,34.0,09:58:48,1.0,Block_1-Block_2,block1,1608.0,sharneu_tree.bmp,rouneu_tree.bmp,478.0,1.0,left
munar2015common,3,84ms,2013,06,09,4.0,alex,12,m,chimpanzee,1.0,39.0,80.0,10:18:34,2.0,Block_2-Block_1,block2,443.0,sharneu_bucket.bmp,rouneu_bucket.bmp,570.0,0.0,left
munar2015common,3,84ms,2013,08,02,5.0,lome,11,m,chimpanzee,1.0,39.0,85.0,11:27:18,2.0,Block_2-Block_1,block2,388.0,sharneu_canister.bmp,rouneu_canister.bmp,745.0,0.0,left
munar2015common,3,84ms,2013,08,02,6.0,kofi,8,m,chimpanzee,1.0,39.0,85.0,10:57:42,2.0,Block_2-Block_1,block2,15828.0,sharneu_canister.bmp,rouneu_canister.bmp,550.0,0.0,right
munar2015common,3,84ms,2013,08,02,7.0,lobo,9,m,chimpanzee,1.0,39.0,60.0,10:29:51,1.0,Block_1-Block_2,block1,6168.0,sharneu_clock.bmp,sharneu_watch.bmp,1440.0,1.0,left
munar2015common,3,84ms,2013,09,06,8.0,kibara,9,f,gorilla,1.0,39.0,143.0,09:01:01,2.0,Block_2-Block_1,block2,5350.0,sharneu_teakettle.bmp,sharneu_teapot.bmp,1204.0,0.0,left
munar2015common,3,84ms,2013,09,06,9.0,viringika,18,f,gorilla,1.0,39.0,77.0,09:21:47,2.0,Block_2-Block_1,block2,3148.0,sharneu_briefcase.bmp,rouneu_briefcase.bmp,331.0,1.0,left
munar2015common,3,84ms,2013,06,09,2.0,jahaga,20,f,chimpanzee,1.0,40.0,5.0,09:40:02,1.0,Block_1-Block_2,block1,1713.0,rouneu_briefcase.bmp,sharneu_briefcase.bmp,323.0,1.0,right
munar2015common,3,84ms,2013,06,09,3.0,fifi,20,f,chimpanzee,1.0,40.0,22.0,09:58:48,1.0,Block_1-Block_2,block1,2982.0,sharneu_flower.bmp,rouneu_flower.bmp,758.0,0.0,right
munar2015common,3,84ms,2013,06,09,4.0,alex,12,m,chimpanzee,1.0,40.0,74.0,10:18:34,2.0,Block_2-Block_1,block2,527.0,sharneu_basket2.bmp,rouneu_basket2.bmp,461.0,1.0,right
munar2015common,3,84ms,2013,08,02,5.0,lome,11,m,chimpanzee,1.0,40.0,117.0,11:27:18,2.0,Block_2-Block_1,block2,2346.0,rouneu_nailpolish.bmp,rouneu_lipstick.bmp,3313.0,1.0,left
munar2015common,3,84ms,2013,08,02,6.0,kofi,8,m,chimpanzee,1.0,40.0,139.0,10:57:42,2.0,Block_2-Block_1,block2,464.0,sharneu_toaster.bmp,sharneu_radioantique.bmp,588.0,1.0,right
munar2015common,3,84ms,2013,08,02,7.0,lobo,9,m,chimpanzee,1.0,40.0,12.0,10:29:51,1.0,Block_1-Block_2,block1,5671.0,rouneu_candletray.bmp,sharneu_candletray.bmp,683.0,0.0,left
munar2015common,3,84ms,2013,09,06,8.0,kibara,9,f,gorilla,1.0,40.0,138.0,09:01:01,2.0,Block_2-Block_1,block2,882.0,sharneu_remote.bmp,sharneu_phonecordless.bmp,453.0,1.0,right
munar2015common,3,84ms,2013,09,06,9.0,viringika,18,f,gorilla,1.0,40.0,99.0,09:21:47,2.0,Block_2-Block_1,block2,2269.0,rouneu_mirrorbig.bmp,sharneu_mirrorbig.bmp,363.0,0.0,left
munar2015common,3,84ms,2013,06,09,2.0,jahaga,20,f,chimpanzee,1.0,41.0,66.0,09:40:02,1.0,Block_1-Block_2,block1,862.0,sharneu_phonecordless.bmp,sharneu_remote.bmp,282.0,1.0,right
munar2015common,3,84ms,2013,06,09,3.0,fifi,20,f,chimpanzee,1.0,41.0,27.0,09:58:48,1.0,Block_1-Block_2,block1,413.0,sharneu_mirrorbig.bmp,rouneu_mirrorbig.bmp,483.0,0.0,left
munar2015common,3,84ms,2013,06,09,4.0,alex,12,m,chimpanzee,1.0,41.0,98.0,10:18:34,2.0,Block_2-Block_1,block2,2268.0,rouneu_leaf.bmp,sharneu_leaf.bmp,522.0,0.0,right
munar2015common,3,84ms,2013,08,02,5.0,lome,11,m,chimpanzee,1.0,41.0,113.0,11:27:18,2.0,Block_2-Block_1,block2,4982.0,rouneu_pda.bmp,rouneu_calculator.bmp,1352.0,0.0,left
munar2015common,3,84ms,2013,08,02,6.0,kofi,8,m,chimpanzee,1.0,41.0,74.0,10:57:42,2.0,Block_2-Block_1,block2,16482.0,sharneu_basket2.bmp,rouneu_basket2.bmp,634.0,0.0,right
munar2015common,3,84ms,2013,08,02,7.0,lobo,9,m,chimpanzee,1.0,41.0,15.0,10:29:51,1.0,Block_1-Block_2,block1,2214.0,rouneu_chineselantern.bmp,sharneu_chineselantern.bmp,1547.0,0.0,left
munar2015common,3,84ms,2013,09,06,8.0,kibara,9,f,gorilla,1.0,41.0,94.0,09:01:01,2.0,Block_2-Block_1,block2,675.0,rouneu_flower.bmp,sharneu_flower.bmp,3030.0,1.0,left
munar2015common,3,84ms,2013,09,06,9.0,viringika,18,f,gorilla,1.0,41.0,93.0,09:21:47,2.0,Block_2-Block_1,block2,3342.0,rouneu_figuretriangle.bmp,sharneu_figuretriangle.bmp,726.0,1.0,right
munar2015common,3,84ms,2013,06,09,2.0,jahaga,20,f,chimpanzee,1.0,42.0,58.0,09:40:02,1.0,Block_1-Block_2,block1,1179.0,sharneu_boxlock.bmp,sharneu_mirror.bmp,283.0,0.0,right
munar2015common,3,84ms,2013,06,09,3.0,fifi,20,f,chimpanzee,1.0,42.0,31.0,09:58:48,1.0,Block_1-Block_2,block1,274.0,sharneu_stool.bmp,rouneu_stool.bmp,478.0,1.0,left
munar2015common,3,84ms,2013,06,09,4.0,alex,12,m,chimpanzee,1.0,42.0,114.0,10:18:34,2.0,Block_2-Block_1,block2,320.0,rouneu_watch.bmp,rouneu_clock.bmp,343.0,1.0,left
munar2015common,3,84ms,2013,08,02,5.0,lome,11,m,chimpanzee,1.0,42.0,83.0,11:27:18,2.0,Block_2-Block_1,block2,2275.0,sharneu_candle.bmp,rouneu_candle.bmp,979.0,1.0,right
munar2015common,3,84ms,2013,08,02,6.0,kofi,8,m,chimpanzee,1.0,42.0,127.0,10:57:42,2.0,Block_2-Block_1,block2,555.0,sharneu_phone.bmp,sharneu_answering.bmp,555.0,1.0,left
munar2015common,3,84ms,2013,08,02,7.0,lobo,9,m,chimpanzee,1.0,42.0,52.0,10:29:51,1.0,Block_1-Block_2,block1,1090.0,rouneu_spatula.bmp,rouneu_shovel.bmp,1014.0,1.0,right
munar2015common,3,84ms,2013,09,06,8.0,kibara,9,f,gorilla,1.0,42.0,136.0,09:01:01,2.0,Block_2-Block_1,block2,3370.0,sharneu_printer.bmp,sharneu_mailbox.bmp,535.0,0.0,left
munar2015common,3,84ms,2013,09,06,9.0,viringika,18,f,gorilla,1.0,42.0,101.0,09:21:47,2.0,Block_2-Block_1,block2,2050.0,rouneu_pictureframe.bmp,sharneu_pictureframe.bmp,456.0,0.0,left
munar2015common,3,84ms,2013,06,09,2.0,jahaga,20,f,chimpanzee,1.0,43.0,20.0,09:40:02,1.0,Block_1-Block_2,block1,1094.0,sharneu_figureblock.bmp,rouneu_figureblock.bmp,641.0,1.0,left
munar2015common,3,84ms,2013,06,09,3.0,fifi,20,f,chimpanzee,1.0,43.0,55.0,09:58:48,1.0,Block_1-Block_2,block1,1856.0,sharneu_answering.bmp,sharneu_phone.bmp,667.0,1.0,left
munar2015common,3,84ms,2013,06,09,4.0,alex,12,m,chimpanzee,1.0,43.0,82.0,10:18:34,2.0,Block_2-Block_1,block2,2715.0,sharneu_butterfly.bmp,rouneu_butterfly.bmp,229.0,1.0,right
munar2015common,3,84ms,2013,08,02,5.0,lome,11,m,chimpanzee,1.0,43.0,107.0,11:27:18,2.0,Block_2-Block_1,block2,1521.0,rouneu_vase.bmp,sharneu_vase.bmp,565.0,0.0,right
munar2015common,3,84ms,2013,08,02,6.0,kofi,8,m,chimpanzee,1.0,43.0,120.0,10:57:42,2.0,Block_2-Block_1,block2,8863.0,rouneu_remote.bmp,rouneu_phonecordless.bmp,599.0,0.0,left
munar2015common,3,84ms,2013,08,02,7.0,lobo,9,m,chimpanzee,1.0,43.0,13.0,10:29:51,1.0,Block_1-Block_2,block1,6553.0,rouneu_canister.bmp,sharneu_canister.bmp,1310.0,1.0,left
munar2015common,3,84ms,2013,09,06,8.0,kibara,9,f,gorilla,1.0,43.0,91.0,09:01:01,2.0,Block_2-Block_1,block2,958.0,rouneu_cuttingboard.bmp,sharneu_cuttingboard.bmp,503.0,1.0,left
munar2015common,3,84ms,2013,09,06,9.0,viringika,18,f,gorilla,1.0,43.0,129.0,09:21:47,2.0,Block_2-Block_1,block2,1656.0,sharneu_lantern.bmp,sharneu_battery.bmp,492.0,1.0,left
munar2015common,3,84ms,2013,06,09,2.0,jahaga,20,f,chimpanzee,1.0,44.0,19.0,09:40:02,1.0,Block_1-Block_2,block1,910.0,sharneu_cuttingboard.bmp,rouneu_cuttingboard.bmp,359.0,0.0,left
munar2015common,3,84ms,2013,06,09,3.0,fifi,20,f,chimpanzee,1.0,44.0,41.0,09:58:48,1.0,Block_1-Block_2,block1,1271.0,rouneu_calculator.bmp,rouneu_pda.bmp,445.0,0.0,left
munar2015common,3,84ms,2013,06,09,4.0,alex,12,m,chimpanzee,1.0,44.0,79.0,10:18:34,2.0,Block_2-Block_1,block2,4145.0,sharneu_brushsmall.bmp,rouneu_brushsmall.bmp,363.0,0.0,right
munar2015common,3,84ms,2013,08,02,5.0,lome,11,m,chimpanzee,1.0,44.0,134.0,11:27:18,2.0,Block_2-Block_1,block2,682.0,sharneu_officechair.bmp,sharneu_couch.bmp,529.0,1.0,right
munar2015common,3,84ms,2013,08,02,6.0,kofi,8,m,chimpanzee,1.0,44.0,116.0,10:57:42,2.0,Block_2-Block_1,block2,74.0,rouneu_officechair.bmp,rouneu_couch.bmp,597.0,1.0,left
munar2015common,3,84ms,2013,08,02,7.0,lobo,9,m,chimpanzee,1.0,44.0,49.0,10:29:51,1.0,Block_1-Block_2,block1,6349.0,rouneu_radioantique.bmp,rouneu_toaster.bmp,1487.0,0.0,left
munar2015common,3,84ms,2013,09,06,8.0,kibara,9,f,gorilla,1.0,44.0,103.0,09:01:01,2.0,Block_2-Block_1,block2,545.0,rouneu_stool.bmp,sharneu_stool.bmp,578.0,0.0,right
munar2015common,3,84ms,2013,09,06,9.0,viringika,18,f,gorilla,1.0,44.0,131.0,09:21:47,2.0,Block_2-Block_1,block2,5357.0,sharneu_pda.bmp,sharneu_calculator.bmp,349.0,0.0,left
munar2015common,3,84ms,2013,06,09,2.0,jahaga,20,f,chimpanzee,1.0,45.0,34.0,09:40:02,1.0,Block_1-Block_2,block1,314.0,sharneu_tree.bmp,rouneu_tree.bmp,354.0,0.0,left
munar2015common,3,84ms,2013,06,09,3.0,fifi,20,f,chimpanzee,1.0,45.0,17.0,09:58:48,1.0,Block_1-Block_2,block1,611.0,rouneu_cookie.bmp,sharneu_cookie.bmp,651.0,1.0,left
munar2015common,3,84ms,2013,06,09,4.0,alex,12,m,chimpanzee,1.0,45.0,115.0,10:18:34,2.0,Block_2-Block_1,block2,1208.0,rouneu_vcr.bmp,rouneu_clockalarm.bmp,282.0,0.0,left
munar2015common,3,84ms,2013,08,02,5.0,lome,11,m,chimpanzee,1.0,45.0,137.0,11:27:18,2.0,Block_2-Block_1,block2,3821.0,sharneu_purse2.bmp,sharneu_padlock.bmp,635.0,1.0,right
munar2015common,3,84ms,2013,08,02,6.0,kofi,8,m,chimpanzee,1.0,45.0,142.0,10:57:42,2.0,Block_2-Block_1,block2,5924.0,sharneu_shovel.bmp,sharneu_spatula.bmp,619.0,1.0,left
munar2015common,3,84ms,2013,08,02,7.0,lobo,9,m,chimpanzee,1.0,45.0,37.0,10:29:51,1.0,Block_1-Block_2,block1,2799.0,rouneu_answering.bmp,rouneu_phone.bmp,707.0,1.0,left
munar2015common,3,84ms,2013,09,06,8.0,kibara,9,f,gorilla,1.0,45.0,130.0,09:01:01,2.0,Block_2-Block_1,block2,532.0,sharneu_mirror.bmp,sharneu_boxlock.bmp,482.0,0.0,right
munar2015common,3,84ms,2013,09,06,9.0,viringika,18,f,gorilla,1.0,45.0,79.0,09:21:47,2.0,Block_2-Block_1,block2,2846.0,sharneu_brushsmall.bmp,rouneu_brushsmall.bmp,440.0,1.0,right
munar2015common,3,84ms,2013,06,09,2.0,jahaga,20,f,chimpanzee,1.0,46.0,28.0,09:40:02,1.0,Block_1-Block_2,block1,1168.0,sharneu_pan.bmp,rouneu_pan.bmp,282.0,1.0,right
munar2015common,3,84ms,2013,06,09,3.0,fifi,20,f,chimpanzee,1.0,46.0,57.0,09:58:48,1.0,Block_1-Block_2,block1,1057.0,sharneu_battery.bmp,sharneu_lantern.bmp,428.0,0.0,left
munar2015common,3,84ms,2013,06,09,4.0,alex,12,m,chimpanzee,1.0,46.0,96.0,10:18:34,2.0,Block_2-Block_1,block2,442.0,rouneu_flowersandpot.bmp,sharneu_flowersandpot.bmp,569.0,1.0,left
munar2015common,3,84ms,2013,08,02,5.0,lome,11,m,chimpanzee,1.0,46.0,93.0,11:27:18,2.0,Block_2-Block_1,block2,2319.0,rouneu_figuretriangle.bmp,sharneu_figuretriangle.bmp,620.0,0.0,right
munar2015common,3,84ms,2013,08,02,6.0,kofi,8,m,chimpanzee,1.0,46.0,125.0,10:57:42,2.0,Block_2-Block_1,block2,4105.0,rouneu_teakettle.bmp,rouneu_teapot.bmp,806.0,0.0,left
munar2015common,3,84ms,2013,08,02,7.0,lobo,9,m,chimpanzee,1.0,46.0,3.0,10:29:51,1.0,Block_1-Block_2,block1,5091.0,rouneu_bench.bmp,sharneu_bench.bmp,636.0,0.0,left
munar2015common,3,84ms,2013,09,06,8.0,kibara,9,f,gorilla,1.0,46.0,87.0,09:01:01,2.0,Block_2-Block_1,block2,296.0,sharneu_chineselantern.bmp,rouneu_chineselantern.bmp,479.0,1.0,left
munar2015common,3,84ms,2013,09,06,9.0,viringika,18,f,gorilla,1.0,46.0,117.0,09:21:47,2.0,Block_2-Block_1,block2,3228.0,rouneu_nailpolish.bmp,rouneu_lipstick.bmp,396.0,0.0,right
munar2015common,3,84ms,2013,06,09,2.0,jahaga,20,f,chimpanzee,1.0,47.0,13.0,09:40:02,1.0,Block_1-Block_2,block1,1333.0,rouneu_canister.bmp,sharneu_canister.bmp,270.0,1.0,right
munar2015common,3,84ms,2013,06,09,3.0,fifi,20,f,chimpanzee,1.0,47.0,3.0,09:58:48,1.0,Block_1-Block_2,block1,16.0,rouneu_bench.bmp,sharneu_bench.bmp,2339.0,0.0,left
munar2015common,3,84ms,2013,06,09,4.0,alex,12,m,chimpanzee,1.0,47.0,76.0,10:18:34,2.0,Block_2-Block_1,block2,1702.0,sharneu_birdhouse.bmp,rouneu_birdhouse.bmp,463.0,0.0,right
munar2015common,3,84ms,2013,08,02,5.0,lome,11,m,chimpanzee,1.0,47.0,110.0,11:27:18,2.0,Block_2-Block_1,block2,878.0,rouneu_pizza.bmp,rouneu_ashtray.bmp,602.0,0.0,right
munar2015common,3,84ms,2013,08,02,6.0,kofi,8,m,chimpanzee,1.0,47.0,131.0,10:57:42,2.0,Block_2-Block_1,block2,8301.0,sharneu_pda.bmp,sharneu_calculator.bmp,524.0,1.0,left
munar2015common,3,84ms,2013,08,02,7.0,lobo,9,m,chimpanzee,1.0,47.0,54.0,10:29:51,1.0,Block_1-Block_2,block1,3104.0,rouneu_television.bmp,rouneu_camera.bmp,685.0,0.0,left
munar2015common,3,84ms,2013,09,06,8.0,kibara,9,f,gorilla,1.0,47.0,86.0,09:01:01,2.0,Block_2-Block_1,block2,539.0,sharneu_cheese.bmp,rouneu_cheese.bmp,1377.0,1.0,right
munar2015common,3,84ms,2013,09,06,9.0,viringika,18,f,gorilla,1.0,47.0,115.0,09:21:47,2.0,Block_2-Block_1,block2,1130.0,rouneu_vcr.bmp,rouneu_clockalarm.bmp,451.0,1.0,left
munar2015common,3,84ms,2013,06,09,2.0,jahaga,20,f,chimpanzee,1.0,48.0,22.0,09:40:02,1.0,Block_1-Block_2,block1,10581.0,sharneu_flower.bmp,rouneu_flower.bmp,361.0,0.0,right
munar2015common,3,84ms,2013,06,09,3.0,fifi,20,f,chimpanzee,1.0,48.0,46.0,09:58:48,1.0,Block_1-Block_2,block1,111.0,rouneu_mailbox.bmp,rouneu_printer.bmp,491.0,1.0,left
munar2015common,3,84ms,2013,06,09,4.0,alex,12,m,chimpanzee,1.0,48.0,81.0,10:18:34,2.0,Block_2-Block_1,block2,481.0,sharneu_bundtpan.bmp,rouneu_bundtpan.bmp,377.0,1.0,left
munar2015common,3,84ms,2013,08,02,5.0,lome,11,m,chimpanzee,1.0,48.0,115.0,11:27:18,2.0,Block_2-Block_1,block2,977.0,rouneu_vcr.bmp,rouneu_clockalarm.bmp,510.0,1.0,left
munar2015common,3,84ms,2013,08,02,6.0,kofi,8,m,chimpanzee,1.0,48.0,110.0,10:57:42,2.0,Block_2-Block_1,block2,2900.0,rouneu_pizza.bmp,rouneu_ashtray.bmp,691.0,0.0,left
munar2015common,3,84ms,2013,08,02,7.0,lobo,9,m,chimpanzee,1.0,48.0,46.0,10:29:51,1.0,Block_1-Block_2,block1,9616.0,rouneu_mailbox.bmp,rouneu_printer.bmp,3573.0,1.0,left
munar2015common,3,84ms,2013,09,06,8.0,kibara,9,f,gorilla,1.0,48.0,107.0,09:01:01,2.0,Block_2-Block_1,block2,589.0,rouneu_vase.bmp,sharneu_vase.bmp,564.0,0.0,left
munar2015common,3,84ms,2013,09,06,9.0,viringika,18,f,gorilla,1.0,48.0,84.0,09:21:47,2.0,Block_2-Block_1,block2,2955.0,sharneu_candletray.bmp,rouneu_candletray.bmp,447.0,0.0,left
munar2015common,3,84ms,2013,06,09,2.0,jahaga,20,f,chimpanzee,1.0,49.0,54.0,09:40:02,1.0,Block_1-Block_2,block1,608.0,rouneu_television.bmp,rouneu_camera.bmp,316.0,0.0,right
munar2015common,3,84ms,2013,06,09,3.0,fifi,20,f,chimpanzee,1.0,49.0,54.0,09:58:48,1.0,Block_1-Block_2,block1,4218.0,rouneu_television.bmp,rouneu_camera.bmp,433.0,1.0,left
munar2015common,3,84ms,2013,06,09,4.0,alex,12,m,chimpanzee,1.0,49.0,92.0,10:18:34,2.0,Block_2-Block_1,block2,2649.0,rouneu_figureblock.bmp,sharneu_figureblock.bmp,800.0,0.0,left
munar2015common,3,84ms,2013,08,02,5.0,lome,11,m,chimpanzee,1.0,49.0,82.0,11:27:18,2.0,Block_2-Block_1,block2,2498.0,sharneu_butterfly.bmp,rouneu_butterfly.bmp,979.0,0.0,left
munar2015common,3,84ms,2013,08,02,6.0,kofi,8,m,chimpanzee,1.0,49.0,138.0,10:57:42,2.0,Block_2-Block_1,block2,53.0,sharneu_remote.bmp,sharneu_phonecordless.bmp,593.0,1.0,left
munar2015common,3,84ms,2013,08,02,7.0,lobo,9,m,chimpanzee,1.0,49.0,34.0,10:29:51,1.0,Block_1-Block_2,block1,2075.0,sharneu_tree.bmp,rouneu_tree.bmp,695.0,1.0,left
munar2015common,3,84ms,2013,09,06,8.0,kibara,9,f,gorilla,1.0,49.0,128.0,09:01:01,2.0,Block_2-Block_1,block2,1006.0,sharneu_pizza.bmp,sharneu_ashtray.bmp,1046.0,0.0,right
munar2015common,3,84ms,2013,09,06,9.0,viringika,18,f,gorilla,1.0,49.0,86.0,09:21:47,2.0,Block_2-Block_1,block2,781.0,sharneu_cheese.bmp,rouneu_cheese.bmp,464.0,0.0,left
munar2015common,3,84ms,2013,06,09,2.0,jahaga,20,f,chimpanzee,1.0,50.0,48.0,09:40:02,1.0,Block_1-Block_2,block1,344.0,rouneu_phonecordless.bmp,rouneu_remote.bmp,391.0,1.0,left
munar2015common,3,84ms,2013,06,09,3.0,fifi,20,f,chimpanzee,1.0,50.0,6.0,09:58:48,1.0,Block_1-Block_2,block1,1895.0,rouneu_brush.bmp,sharneu_brush.bmp,852.0,0.0,left
munar2015common,3,84ms,2013,06,09,4.0,alex,12,m,chimpanzee,1.0,50.0,84.0,10:18:34,2.0,Block_2-Block_1,block2,725.0,sharneu_candletray.bmp,rouneu_candletray.bmp,1098.0,1.0,right
munar2015common,3,84ms,2013,08,02,5.0,lome,11,m,chimpanzee,1.0,50.0,116.0,11:27:18,2.0,Block_2-Block_1,block2,2370.0,rouneu_officechair.bmp,rouneu_couch.bmp,554.0,1.0,right
munar2015common,3,84ms,2013,08,02,6.0,kofi,8,m,chimpanzee,1.0,50.0,77.0,10:57:42,2.0,Block_2-Block_1,block2,5184.0,sharneu_briefcase.bmp,rouneu_briefcase.bmp,1242.0,0.0,left
munar2015common,3,84ms,2013,08,02,7.0,lobo,9,m,chimpanzee,1.0,50.0,18.0,10:29:51,1.0,Block_1-Block_2,block1,6417.0,rouneu_cushion.bmp,sharneu_cushion.bmp,1629.0,0.0,left
munar2015common,3,84ms,2013,09,06,8.0,kibara,9,f,gorilla,1.0,50.0,101.0,09:01:01,2.0,Block_2-Block_1,block2,2521.0,rouneu_pictureframe.bmp,sharneu_pictureframe.bmp,442.0,1.0,left
munar2015common,3,84ms,2013,09,06,9.0,viringika,18,f,gorilla,1.0,50.0,94.0,09:21:47,2.0,Block_2-Block_1,block2,4931.0,rouneu_flower.bmp,sharneu_flower.bmp,378.0,1.0,left
munar2015common,3,84ms,2013,06,09,2.0,jahaga,20,f,chimpanzee,1.0,51.0,29.0,09:40:02,1.0,Block_1-Block_2,block1,1303.0,sharneu_pictureframe.bmp,rouneu_pictureframe.bmp,433.0,1.0,left
munar2015common,3,84ms,2013,06,09,3.0,fifi,20,f,chimpanzee,1.0,51.0,68.0,09:58:48,1.0,Block_1-Block_2,block1,607.0,sharneu_recyclebin.bmp,sharneu_speaker.bmp,467.0,1.0,left
munar2015common,3,84ms,2013,06,09,4.0,alex,12,m,chimpanzee,1.0,51.0,133.0,10:18:34,2.0,Block_2-Block_1,block2,1493.0,sharneu_vcr.bmp,sharneu_clockalarm.bmp,470.0,0.0,right
munar2015common,3,84ms,2013,08,02,5.0,lome,11,m,chimpanzee,1.0,51.0,135.0,11:27:18,2.0,Block_2-Block_1,block2,1929.0,sharneu_nailpolish.bmp,sharneu_lipstick.bmp,1003.0,0.0,right
munar2015common,3,84ms,2013,08,02,6.0,kofi,8,m,chimpanzee,1.0,51.0,136.0,10:57:42,2.0,Block_2-Block_1,block2,94.0,sharneu_printer.bmp,sharneu_mailbox.bmp,500.0,0.0,left
munar2015common,3,84ms,2013,08,02,7.0,lobo,9,m,chimpanzee,1.0,51.0,61.0,10:29:51,1.0,Block_1-Block_2,block1,587.0,sharneu_clockalarm.bmp,sharneu_vcr.bmp,561.0,0.0,right
munar2015common,3,84ms,2013,09,06,8.0,kibara,9,f,gorilla,1.0,51.0,93.0,09:01:01,2.0,Block_2-Block_1,block2,525.0,rouneu_figuretriangle.bmp,sharneu_figuretriangle.bmp,713.0,1.0,left
munar2015common,3,84ms,2013,09,06,9.0,viringika,18,f,gorilla,1.0,51.0,128.0,09:21:47,2.0,Block_2-Block_1,block2,3903.0,sharneu_pizza.bmp,sharneu_ashtray.bmp,441.0,0.0,right
munar2015common,3,84ms,2013,06,09,2.0,jahaga,20,f,chimpanzee,1.0,52.0,3.0,09:40:02,1.0,Block_1-Block_2,block1,2460.0,rouneu_bench.bmp,sharneu_bench.bmp,321.0,0.0,right
munar2015common,3,84ms,2013,06,09,3.0,fifi,20,f,chimpanzee,1.0,52.0,71.0,09:58:48,1.0,Block_1-Block_2,block1,17151.0,sharneu_teapot.bmp,sharneu_teakettle.bmp,627.0,0.0,left
munar2015common,3,84ms,2013,06,09,4.0,alex,12,m,chimpanzee,1.0,52.0,126.0,10:18:34,2.0,Block_2-Block_1,block2,528.0,rouneu_camera.bmp,rouneu_television.bmp,472.0,1.0,right
munar2015common,3,84ms,2013,08,02,5.0,lome,11,m,chimpanzee,1.0,52.0,136.0,11:27:18,2.0,Block_2-Block_1,block2,1068.0,sharneu_printer.bmp,sharneu_mailbox.bmp,861.0,1.0,right
munar2015common,3,84ms,2013,08,02,6.0,kofi,8,m,chimpanzee,1.0,52.0,94.0,10:57:42,2.0,Block_2-Block_1,block2,375.0,rouneu_flower.bmp,sharneu_flower.bmp,618.0,1.0,left
munar2015common,3,84ms,2013,08,02,7.0,lobo,9,m,chimpanzee,1.0,52.0,30.0,10:29:51,1.0,Block_1-Block_2,block1,655.0,sharneu_shades.bmp,rouneu_shades.bmp,1842.0,1.0,left
munar2015common,3,84ms,2013,09,06,8.0,kibara,9,f,gorilla,1.0,52.0,102.0,09:01:01,2.0,Block_2-Block_1,block2,1171.0,rouneu_shades.bmp,sharneu_shades.bmp,1561.0,0.0,right
munar2015common,3,84ms,2013,09,06,9.0,viringika,18,f,gorilla,1.0,52.0,97.0,09:21:47,2.0,Block_2-Block_1,block2,652.0,rouneu_gem.bmp,sharneu_gem.bmp,357.0,1.0,left
munar2015common,3,84ms,2013,06,09,2.0,jahaga,20,f,chimpanzee,1.0,53.0,49.0,09:40:02,1.0,Block_1-Block_2,block1,370.0,rouneu_radioantique.bmp,rouneu_toaster.bmp,323.0,1.0,right
munar2015common,3,84ms,2013,06,09,3.0,fifi,20,f,chimpanzee,1.0,53.0,49.0,09:58:48,1.0,Block_1-Block_2,block1,456.0,rouneu_radioantique.bmp,rouneu_toaster.bmp,515.0,0.0,left
munar2015common,3,84ms,2013,06,09,4.0,alex,12,m,chimpanzee,1.0,53.0,124.0,10:18:34,2.0,Block_2-Block_1,block2,2423.0,rouneu_shovel.bmp,rouneu_spatula.bmp,838.0,0.0,left
munar2015common,3,84ms,2013,08,02,5.0,lome,11,m,chimpanzee,1.0,53.0,127.0,11:27:18,2.0,Block_2-Block_1,block2,2809.0,sharneu_phone.bmp,sharneu_answering.bmp,1390.0,0.0,left
munar2015common,3,84ms,2013,08,02,6.0,kofi,8,m,chimpanzee,1.0,53.0,134.0,10:57:42,2.0,Block_2-Block_1,block2,7076.0,sharneu_officechair.bmp,sharneu_couch.bmp,892.0,0.0,left
munar2015common,3,84ms,2013,08,02,7.0,lobo,9,m,chimpanzee,1.0,53.0,17.0,10:29:51,1.0,Block_1-Block_2,block1,1654.0,rouneu_cookie.bmp,sharneu_cookie.bmp,661.0,1.0,right
munar2015common,3,84ms,2013,09,06,8.0,kibara,9,f,gorilla,1.0,53.0,81.0,09:01:01,2.0,Block_2-Block_1,block2,900.0,sharneu_bundtpan.bmp,rouneu_bundtpan.bmp,403.0,1.0,left
munar2015common,3,84ms,2013,09,06,9.0,viringika,18,f,gorilla,1.0,53.0,139.0,09:21:47,2.0,Block_2-Block_1,block2,5002.0,sharneu_toaster.bmp,sharneu_radioantique.bmp,383.0,1.0,left
munar2015common,3,84ms,2013,06,09,2.0,jahaga,20,f,chimpanzee,1.0,54.0,2.0,09:40:02,1.0,Block_1-Block_2,block1,641.0,rouneu_basket2.bmp,sharneu_basket2.bmp,268.0,0.0,right
munar2015common,3,84ms,2013,06,09,3.0,fifi,20,f,chimpanzee,1.0,54.0,32.0,09:58:48,1.0,Block_1-Block_2,block1,433.0,sharneu_table.bmp,rouneu_table.bmp,420.0,1.0,left
munar2015common,3,84ms,2013,06,09,4.0,alex,12,m,chimpanzee,1.0,54.0,130.0,10:18:34,2.0,Block_2-Block_1,block2,169.0,sharneu_mirror.bmp,sharneu_boxlock.bmp,342.0,1.0,right
munar2015common,3,84ms,2013,08,02,5.0,lome,11,m,chimpanzee,1.0,54.0,144.0,11:27:18,2.0,Block_2-Block_1,block2,372.0,sharneu_camera.bmp,sharneu_television.bmp,395.0,1.0,left
munar2015common,3,84ms,2013,08,02,6.0,kofi,8,m,chimpanzee,1.0,54.0,83.0,10:57:42,2.0,Block_2-Block_1,block2,483.0,sharneu_candle.bmp,rouneu_candle.bmp,660.0,1.0,left
munar2015common,3,84ms,2013,08,02,7.0,lobo,9,m,chimpanzee,1.0,54.0,9.0,10:29:51,1.0,Block_1-Block_2,block1,8044.0,rouneu_bundtpan.bmp,sharneu_bundtpan.bmp,4620.0,0.0,left
munar2015common,3,84ms,2013,09,06,8.0,kibara,9,f,gorilla,1.0,54.0,73.0,09:01:01,2.0,Block_2-Block_1,block2,3355.0,sharneu_basket.bmp,rouneu_basket.bmp,688.0,0.0,left
munar2015common,3,84ms,2013,09,06,9.0,viringika,18,f,gorilla,1.0,54.0,81.0,09:21:47,2.0,Block_2-Block_1,block2,5116.0,sharneu_bundtpan.bmp,rouneu_bundtpan.bmp,456.0,0.0,right
munar2015common,3,84ms,2013,06,09,2.0,jahaga,20,f,chimpanzee,1.0,55.0,7.0,09:40:02,1.0,Block_1-Block_2,block1,6756.0,rouneu_brushsmall.bmp,sharneu_brushsmall.bmp,378.0,0.0,left
munar2015common,3,84ms,2013,06,09,3.0,fifi,20,f,chimpanzee,1.0,55.0,21.0,09:58:48,1.0,Block_1-Block_2,block1,1170.0,sharneu_figuretriangle.bmp,rouneu_figuretriangle.bmp,455.0,0.0,left
munar2015common,3,84ms,2013,06,09,4.0,alex,12,m,chimpanzee,1.0,55.0,116.0,10:18:34,2.0,Block_2-Block_1,block2,4900.0,rouneu_officechair.bmp,rouneu_couch.bmp,531.0,1.0,right
munar2015common,3,84ms,2013,08,02,5.0,lome,11,m,chimpanzee,1.0,55.0,99.0,11:27:18,2.0,Block_2-Block_1,block2,2729.0,rouneu_mirrorbig.bmp,sharneu_mirrorbig.bmp,627.0,1.0,right
munar2015common,3,84ms,2013,08,02,6.0,kofi,8,m,chimpanzee,1.0,55.0,130.0,10:57:42,2.0,Block_2-Block_1,block2,2315.0,sharneu_mirror.bmp,sharneu_boxlock.bmp,1089.0,0.0,left
munar2015common,3,84ms,2013,08,02,7.0,lobo,9,m,chimpanzee,1.0,55.0,51.0,10:29:51,1.0,Block_1-Block_2,block1,220.0,rouneu_scrubbrush.bmp,rouneu_sponge.bmp,610.0,1.0,right
munar2015common,3,84ms,2013,09,06,8.0,kibara,9,f,gorilla,1.0,55.0,105.0,09:01:01,2.0,Block_2-Block_1,block2,2081.0,rouneu_tent.bmp,sharneu_tent.bmp,533.0,0.0,right
munar2015common,3,84ms,2013,09,06,9.0,viringika,18,f,gorilla,1.0,55.0,109.0,09:21:47,2.0,Block_2-Block_1,block2,379.0,rouneu_phone.bmp,rouneu_answering.bmp,401.0,1.0,left
munar2015common,3,84ms,2013,06,09,2.0,jahaga,20,f,chimpanzee,1.0,56.0,46.0,09:40:02,1.0,Block_1-Block_2,block1,8770.0,rouneu_mailbox.bmp,rouneu_printer.bmp,366.0,1.0,left
munar2015common,3,84ms,2013,06,09,3.0,fifi,20,f,chimpanzee,1.0,56.0,18.0,09:58:48,1.0,Block_1-Block_2,block1,728.0,rouneu_cushion.bmp,sharneu_cushion.bmp,462.0,1.0,left
munar2015common,3,84ms,2013,06,09,4.0,alex,12,m,chimpanzee,1.0,56.0,109.0,10:18:34,2.0,Block_2-Block_1,block2,6535.0,rouneu_phone.bmp,rouneu_answering.bmp,964.0,0.0,left
munar2015common,3,84ms,2013,08,02,5.0,lome,11,m,chimpanzee,1.0,56.0,89.0,11:27:18,2.0,Block_2-Block_1,block2,1888.0,sharneu_cookie.bmp,rouneu_cookie.bmp,516.0,0.0,right
munar2015common,3,84ms,2013,08,02,6.0,kofi,8,m,chimpanzee,1.0,56.0,119.0,10:57:42,2.0,Block_2-Block_1,block2,410.0,rouneu_purse2.bmp,rouneu_padlock.bmp,610.0,1.0,left
munar2015common,3,84ms,2013,08,02,7.0,lobo,9,m,chimpanzee,1.0,56.0,6.0,10:29:51,1.0,Block_1-Block_2,block1,1604.0,rouneu_brush.bmp,sharneu_brush.bmp,1482.0,0.0,right
munar2015common,3,84ms,2013,09,06,8.0,kibara,9,f,gorilla,1.0,56.0,104.0,09:01:01,2.0,Block_2-Block_1,block2,2494.0,rouneu_table.bmp,sharneu_table.bmp,498.0,1.0,left
munar2015common,3,84ms,2013,09,06,9.0,viringika,18,f,gorilla,1.0,56.0,98.0,09:21:47,2.0,Block_2-Block_1,block2,3104.0,rouneu_leaf.bmp,sharneu_leaf.bmp,501.0,0.0,left
munar2015common,3,84ms,2013,06,09,2.0,jahaga,20,f,chimpanzee,1.0,57.0,71.0,09:40:02,1.0,Block_1-Block_2,block1,966.0,sharneu_teapot.bmp,sharneu_teakettle.bmp,3060.0,0.0,left
munar2015common,3,84ms,2013,06,09,3.0,fifi,20,f,chimpanzee,1.0,57.0,62.0,09:58:48,1.0,Block_1-Block_2,block1,896.0,sharneu_couch.bmp,sharneu_officechair.bmp,404.0,1.0,left
munar2015common,3,84ms,2013,06,09,4.0,alex,12,m,chimpanzee,1.0,57.0,138.0,10:18:34,2.0,Block_2-Block_1,block2,1602.0,sharneu_remote.bmp,sharneu_phonecordless.bmp,473.0,0.0,right
munar2015common,3,84ms,2013,08,02,5.0,lome,11,m,chimpanzee,1.0,57.0,75.0,11:27:18,2.0,Block_2-Block_1,block2,973.0,sharneu_bench.bmp,rouneu_bench.bmp,427.0,0.0,left
munar2015common,3,84ms,2013,08,02,6.0,kofi,8,m,chimpanzee,1.0,57.0,129.0,10:57:42,2.0,Block_2-Block_1,block2,6908.0,sharneu_lantern.bmp,sharneu_battery.bmp,1260.0,0.0,right
munar2015common,3,84ms,2013,08,02,7.0,lobo,9,m,chimpanzee,1.0,57.0,24.0,10:29:51,1.0,Block_1-Block_2,block1,2230.0,sharneu_flowersandpot.bmp,rouneu_flowersandpot.bmp,827.0,0.0,left
munar2015common,3,84ms,2013,09,06,8.0,kibara,9,f,gorilla,1.0,57.0,140.0,09:01:01,2.0,Block_2-Block_1,block2,4849.0,sharneu_speaker.bmp,sharneu_recyclebin.bmp,592.0,1.0,left
munar2015common,3,84ms,2013,09,06,9.0,viringika,18,f,gorilla,1.0,57.0,75.0,09:21:47,2.0,Block_2-Block_1,block2,2385.0,sharneu_bench.bmp,rouneu_bench.bmp,531.0,1.0,right
munar2015common,3,84ms,2013,06,09,2.0,jahaga,20,f,chimpanzee,1.0,58.0,12.0,09:40:02,1.0,Block_1-Block_2,block1,965.0,rouneu_candletray.bmp,sharneu_candletray.bmp,699.0,1.0,left
munar2015common,3,84ms,2013,06,09,3.0,fifi,20,f,chimpanzee,1.0,58.0,15.0,09:58:48,1.0,Block_1-Block_2,block1,2017.0,rouneu_chineselantern.bmp,sharneu_chineselantern.bmp,431.0,0.0,left
munar2015common,3,84ms,2013,06,09,4.0,alex,12,m,chimpanzee,1.0,58.0,111.0,10:18:34,2.0,Block_2-Block_1,block2,550.0,rouneu_lantern.bmp,rouneu_battery.bmp,741.0,1.0,left
munar2015common,3,84ms,2013,08,02,5.0,lome,11,m,chimpanzee,1.0,58.0,109.0,11:27:18,2.0,Block_2-Block_1,block2,598.0,rouneu_phone.bmp,rouneu_answering.bmp,908.0,1.0,right
munar2015common,3,84ms,2013,08,02,6.0,kofi,8,m,chimpanzee,1.0,58.0,117.0,10:57:42,2.0,Block_2-Block_1,block2,138.0,rouneu_nailpolish.bmp,rouneu_lipstick.bmp,755.0,1.0,left
munar2015common,3,84ms,2013,08,02,7.0,lobo,9,m,chimpanzee,1.0,58.0,56.0,10:29:51,1.0,Block_1-Block_2,block1,4965.0,sharneu_ashtray.bmp,sharneu_pizza.bmp,747.0,1.0,left
munar2015common,3,84ms,2013,09,06,8.0,kibara,9,f,gorilla,1.0,58.0,108.0,09:01:01,2.0,Block_2-Block_1,block2,574.0,rouneu_windchime.bmp,sharneu_windchime.bmp,2464.0,0.0,left
munar2015common,3,84ms,2013,09,06,9.0,viringika,18,f,gorilla,1.0,58.0,95.0,09:21:47,2.0,Block_2-Block_1,block2,5092.0,rouneu_flowerpot.bmp,sharneu_flowerpot.bmp,390.0,0.0,left
munar2015common,3,84ms,2013,06,09,2.0,jahaga,20,f,chimpanzee,1.0,59.0,70.0,09:40:02,1.0,Block_1-Block_2,block1,659.0,sharneu_spatula.bmp,sharneu_shovel.bmp,359.0,1.0,left
munar2015common,3,84ms,2013,06,09,3.0,fifi,20,f,chimpanzee,1.0,59.0,8.0,09:58:48,1.0,Block_1-Block_2,block1,952.0,rouneu_bucket.bmp,sharneu_bucket.bmp,533.0,0.0,left
munar2015common,3,84ms,2013,06,09,4.0,alex,12,m,chimpanzee,1.0,59.0,131.0,10:18:34,2.0,Block_2-Block_1,block2,3877.0,sharneu_pda.bmp,sharneu_calculator.bmp,422.0,0.0,right
munar2015common,3,84ms,2013,08,02,5.0,lome,11,m,chimpanzee,1.0,59.0,114.0,11:27:18,2.0,Block_2-Block_1,block2,2684.0,rouneu_watch.bmp,rouneu_clock.bmp,531.0,1.0,left
munar2015common,3,84ms,2013,08,02,6.0,kofi,8,m,chimpanzee,1.0,59.0,96.0,10:57:42,2.0,Block_2-Block_1,block2,3161.0,rouneu_flowersandpot.bmp,sharneu_flowersandpot.bmp,621.0,0.0,left
munar2015common,3,84ms,2013,08,02,7.0,lobo,9,m,chimpanzee,1.0,59.0,36.0,10:29:51,1.0,Block_1-Block_2,block1,4938.0,sharneu_windchime.bmp,rouneu_windchime.bmp,843.0,1.0,right
munar2015common,3,84ms,2013,09,06,8.0,kibara,9,f,gorilla,1.0,59.0,80.0,09:01:01,2.0,Block_2-Block_1,block2,550.0,sharneu_bucket.bmp,rouneu_bucket.bmp,479.0,1.0,right
munar2015common,3,84ms,2013,09,06,9.0,viringika,18,f,gorilla,1.0,59.0,116.0,09:21:47,2.0,Block_2-Block_1,block2,4421.0,rouneu_officechair.bmp,rouneu_couch.bmp,674.0,0.0,left
munar2015common,3,84ms,2013,06,09,2.0,jahaga,20,f,chimpanzee,1.0,60.0,42.0,09:40:02,1.0,Block_1-Block_2,block1,938.0,rouneu_clock.bmp,rouneu_watch.bmp,265.0,0.0,right
munar2015common,3,84ms,2013,06,09,3.0,fifi,20,f,chimpanzee,1.0,60.0,60.0,09:58:48,1.0,Block_1-Block_2,block1,573.0,sharneu_clock.bmp,sharneu_watch.bmp,537.0,1.0,left
munar2015common,3,84ms,2013,06,09,4.0,alex,12,m,chimpanzee,1.0,60.0,120.0,10:18:34,2.0,Block_2-Block_1,block2,310.0,rouneu_remote.bmp,rouneu_phonecordless.bmp,1130.0,1.0,left
munar2015common,3,84ms,2013,08,02,5.0,lome,11,m,chimpanzee,1.0,60.0,87.0,11:27:18,2.0,Block_2-Block_1,block2,592.0,sharneu_chineselantern.bmp,rouneu_chineselantern.bmp,379.0,0.0,right
munar2015common,3,84ms,2013,08,02,6.0,kofi,8,m,chimpanzee,1.0,60.0,100.0,10:57:42,2.0,Block_2-Block_1,block2,359.0,rouneu_pan.bmp,sharneu_pan.bmp,520.0,1.0,left
munar2015common,3,84ms,2013,08,02,7.0,lobo,9,m,chimpanzee,1.0,60.0,69.0,10:29:51,1.0,Block_1-Block_2,block1,7717.0,sharneu_scrubbrush.bmp,sharneu_sponge.bmp,709.0,0.0,left
munar2015common,3,84ms,2013,09,06,8.0,kibara,9,f,gorilla,1.0,60.0,117.0,09:01:01,2.0,Block_2-Block_1,block2,683.0,rouneu_nailpolish.bmp,rouneu_lipstick.bmp,1933.0,0.0,left
munar2015common,3,84ms,2013,09,06,9.0,viringika,18,f,gorilla,1.0,60.0,90.0,09:21:47,2.0,Block_2-Block_1,block2,795.0,sharneu_cushion.bmp,rouneu_cushion.bmp,419.0,1.0,left
munar2015common,3,84ms,2013,06,09,2.0,jahaga,20,f,chimpanzee,1.0,61.0,26.0,09:40:02,1.0,Block_1-Block_2,block1,213.0,sharneu_leaf.bmp,rouneu_leaf.bmp,483.0,1.0,right
munar2015common,3,84ms,2013,06,09,3.0,fifi,20,f,chimpanzee,1.0,61.0,37.0,09:58:48,1.0,Block_1-Block_2,block1,1042.0,rouneu_answering.bmp,rouneu_phone.bmp,429.0,0.0,left
munar2015common,3,84ms,2013,06,09,4.0,alex,12,m,chimpanzee,1.0,61.0,144.0,10:18:34,2.0,Block_2-Block_1,block2,2640.0,sharneu_camera.bmp,sharneu_television.bmp,375.0,0.0,left
munar2015common,3,84ms,2013,08,02,5.0,lome,11,m,chimpanzee,1.0,61.0,77.0,11:27:18,2.0,Block_2-Block_1,block2,1890.0,sharneu_briefcase.bmp,rouneu_briefcase.bmp,488.0,0.0,right
munar2015common,3,84ms,2013,08,02,6.0,kofi,8,m,chimpanzee,1.0,61.0,123.0,10:57:42,2.0,Block_2-Block_1,block2,3977.0,rouneu_sponge.bmp,rouneu_scrubbrush.bmp,3672.0,0.0,right
munar2015common,3,84ms,2013,08,02,7.0,lobo,9,m,chimpanzee,1.0,61.0,39.0,10:29:51,1.0,Block_1-Block_2,block1,1353.0,rouneu_battery.bmp,rouneu_lantern.bmp,834.0,1.0,left
munar2015common,3,84ms,2013,09,06,8.0,kibara,9,f,gorilla,1.0,61.0,76.0,09:01:01,2.0,Block_2-Block_1,block2,835.0,sharneu_birdhouse.bmp,rouneu_birdhouse.bmp,462.0,1.0,right
munar2015common,3,84ms,2013,09,06,9.0,viringika,18,f,gorilla,1.0,61.0,80.0,09:21:47,2.0,Block_2-Block_1,block2,3651.0,sharneu_bucket.bmp,rouneu_bucket.bmp,368.0,0.0,right
munar2015common,3,84ms,2013,06,09,2.0,jahaga,20,f,chimpanzee,1.0,62.0,16.0,09:40:02,1.0,Block_1-Block_2,block1,521.0,rouneu_chocolate.bmp,sharneu_chocolate.bmp,395.0,0.0,left
munar2015common,3,84ms,2013,06,09,3.0,fifi,20,f,chimpanzee,1.0,62.0,52.0,09:58:48,1.0,Block_1-Block_2,block1,390.0,rouneu_spatula.bmp,rouneu_shovel.bmp,427.0,1.0,left
munar2015common,3,84ms,2013,06,09,4.0,alex,12,m,chimpanzee,1.0,62.0,83.0,10:18:34,2.0,Block_2-Block_1,block2,2103.0,sharneu_candle.bmp,rouneu_candle.bmp,354.0,1.0,left
munar2015common,3,84ms,2013,08,02,5.0,lome,11,m,chimpanzee,1.0,62.0,91.0,11:27:18,2.0,Block_2-Block_1,block2,4889.0,rouneu_cuttingboard.bmp,sharneu_cuttingboard.bmp,1117.0,1.0,left
munar2015common,3,84ms,2013,08,02,6.0,kofi,8,m,chimpanzee,1.0,62.0,106.0,10:57:42,2.0,Block_2-Block_1,block2,751.0,rouneu_tree.bmp,sharneu_tree.bmp,542.0,1.0,left
munar2015common,3,84ms,2013,08,02,7.0,lobo,9,m,chimpanzee,1.0,62.0,55.0,10:29:51,1.0,Block_1-Block_2,block1,2703.0,sharneu_answering.bmp,sharneu_phone.bmp,1534.0,0.0,right
munar2015common,3,84ms,2013,09,06,8.0,kibara,9,f,gorilla,1.0,62.0,92.0,09:01:01,2.0,Block_2-Block_1,block2,625.0,rouneu_figureblock.bmp,sharneu_figureblock.bmp,4404.0,0.0,left
munar2015common,3,84ms,2013,09,06,9.0,viringika,18,f,gorilla,1.0,62.0,110.0,09:21:47,2.0,Block_2-Block_1,block2,1024.0,rouneu_pizza.bmp,rouneu_ashtray.bmp,1210.0,1.0,left
munar2015common,3,84ms,2013,06,09,2.0,jahaga,20,f,chimpanzee,1.0,63.0,55.0,09:40:02,1.0,Block_1-Block_2,block1,1026.0,sharneu_answering.bmp,sharneu_phone.bmp,309.0,1.0,right
munar2015common,3,84ms,2013,06,09,3.0,fifi,20,f,chimpanzee,1.0,63.0,19.0,09:58:48,1.0,Block_1-Block_2,block1,1188.0,sharneu_cuttingboard.bmp,rouneu_cuttingboard.bmp,445.0,0.0,left
munar2015common,3,84ms,2013,06,09,4.0,alex,12,m,chimpanzee,1.0,63.0,73.0,10:18:34,2.0,Block_2-Block_1,block2,2801.0,sharneu_basket.bmp,rouneu_basket.bmp,742.0,1.0,right
munar2015common,3,84ms,2013,08,02,5.0,lome,11,m,chimpanzee,1.0,63.0,101.0,11:27:18,2.0,Block_2-Block_1,block2,2386.0,rouneu_pictureframe.bmp,sharneu_pictureframe.bmp,603.0,1.0,right
munar2015common,3,84ms,2013,08,02,6.0,kofi,8,m,chimpanzee,1.0,63.0,82.0,10:57:42,2.0,Block_2-Block_1,block2,17863.0,sharneu_butterfly.bmp,rouneu_butterfly.bmp,492.0,1.0,left
munar2015common,3,84ms,2013,08,02,7.0,lobo,9,m,chimpanzee,1.0,63.0,38.0,10:29:51,1.0,Block_1-Block_2,block1,1306.0,rouneu_ashtray.bmp,rouneu_pizza.bmp,3443.0,0.0,left
munar2015common,3,84ms,2013,09,06,8.0,kibara,9,f,gorilla,1.0,63.0,88.0,09:01:01,2.0,Block_2-Block_1,block2,1669.0,sharneu_chocolate.bmp,rouneu_chocolate.bmp,463.0,0.0,right
munar2015common,3,84ms,2013,09,06,9.0,viringika,18,f,gorilla,1.0,63.0,144.0,09:21:47,2.0,Block_2-Block_1,block2,2324.0,sharneu_camera.bmp,sharneu_television.bmp,383.0,1.0,left
munar2015common,3,84ms,2013,06,09,2.0,jahaga,20,f,chimpanzee,1.0,64.0,52.0,09:40:02,1.0,Block_1-Block_2,block1,1195.0,rouneu_spatula.bmp,rouneu_shovel.bmp,362.0,0.0,left
munar2015common,3,84ms,2013,06,09,3.0,fifi,20,f,chimpanzee,1.0,64.0,36.0,09:58:48,1.0,Block_1-Block_2,block1,116.0,sharneu_windchime.bmp,rouneu_windchime.bmp,500.0,1.0,left
munar2015common,3,84ms,2013,06,09,4.0,alex,12,m,chimpanzee,1.0,64.0,75.0,10:18:34,2.0,Block_2-Block_1,block2,3755.0,sharneu_bench.bmp,rouneu_bench.bmp,547.0,0.0,left
munar2015common,3,84ms,2013,08,02,5.0,lome,11,m,chimpanzee,1.0,64.0,112.0,11:27:18,2.0,Block_2-Block_1,block2,3627.0,rouneu_mirror.bmp,rouneu_boxlock.bmp,870.0,0.0,left
munar2015common,3,84ms,2013,08,02,6.0,kofi,8,m,chimpanzee,1.0,64.0,98.0,10:57:42,2.0,Block_2-Block_1,block2,4492.0,rouneu_leaf.bmp,sharneu_leaf.bmp,1190.0,0.0,left
munar2015common,3,84ms,2013,08,02,7.0,lobo,9,m,chimpanzee,1.0,64.0,68.0,10:29:51,1.0,Block_1-Block_2,block1,1005.0,sharneu_recyclebin.bmp,sharneu_speaker.bmp,1162.0,1.0,right
munar2015common,3,84ms,2013,09,06,8.0,kibara,9,f,gorilla,1.0,64.0,83.0,09:01:01,2.0,Block_2-Block_1,block2,1106.0,sharneu_candle.bmp,rouneu_candle.bmp,529.0,1.0,left
munar2015common,3,84ms,2013,09,06,9.0,viringika,18,f,gorilla,1.0,64.0,73.0,09:21:47,2.0,Block_2-Block_1,block2,1795.0,sharneu_basket.bmp,rouneu_basket.bmp,401.0,0.0,left
munar2015common,3,84ms,2013,06,09,2.0,jahaga,20,f,chimpanzee,1.0,65.0,57.0,09:40:02,1.0,Block_1-Block_2,block1,1853.0,sharneu_battery.bmp,sharneu_lantern.bmp,534.0,0.0,left
munar2015common,3,84ms,2013,06,09,3.0,fifi,20,f,chimpanzee,1.0,65.0,30.0,09:58:48,1.0,Block_1-Block_2,block1,1186.0,sharneu_shades.bmp,rouneu_shades.bmp,393.0,0.0,left
munar2015common,3,84ms,2013,06,09,4.0,alex,12,m,chimpanzee,1.0,65.0,125.0,10:18:34,2.0,Block_2-Block_1,block2,1571.0,rouneu_teakettle.bmp,rouneu_teapot.bmp,416.0,0.0,right
munar2015common,3,84ms,2013,08,02,5.0,lome,11,m,chimpanzee,1.0,65.0,122.0,11:27:18,2.0,Block_2-Block_1,block2,1738.0,rouneu_speaker.bmp,rouneu_recycle.bmp,1066.0,1.0,left
munar2015common,3,84ms,2013,08,02,6.0,kofi,8,m,chimpanzee,1.0,65.0,128.0,10:57:42,2.0,Block_2-Block_1,block2,562.0,sharneu_pizza.bmp,sharneu_ashtray.bmp,722.0,1.0,left
munar2015common,3,84ms,2013,08,02,7.0,lobo,9,m,chimpanzee,1.0,65.0,67.0,10:29:51,1.0,Block_1-Block_2,block1,5327.0,sharneu_radioantique.bmp,sharneu_toaster.bmp,1639.0,1.0,left
munar2015common,3,84ms,2013,09,06,8.0,kibara,9,f,gorilla,1.0,65.0,85.0,09:01:01,2.0,Block_2-Block_1,block2,629.0,sharneu_canister.bmp,rouneu_canister.bmp,1653.0,1.0,right
munar2015common,3,84ms,2013,09,06,9.0,viringika,18,f,gorilla,1.0,65.0,136.0,09:21:47,2.0,Block_2-Block_1,block2,1647.0,sharneu_printer.bmp,sharneu_mailbox.bmp,427.0,0.0,right
munar2015common,3,84ms,2013,06,09,2.0,jahaga,20,f,chimpanzee,1.0,66.0,45.0,09:40:02,1.0,Block_1-Block_2,block1,175.0,rouneu_lipstick.bmp,rouneu_nailpolish.bmp,578.0,1.0,right
munar2015common,3,84ms,2013,06,09,3.0,fifi,20,f,chimpanzee,1.0,66.0,59.0,09:58:48,1.0,Block_1-Block_2,block1,75.0,sharneu_calculator.bmp,sharneu_pda.bmp,498.0,1.0,left
munar2015common,3,84ms,2013,06,09,4.0,alex,12,m,chimpanzee,1.0,66.0,141.0,10:18:34,2.0,Block_2-Block_1,block2,103.0,sharneu_sponge.bmp,sharneu_scrubbrush.bmp,623.0,1.0,left
munar2015common,3,84ms,2013,08,02,5.0,lome,11,m,chimpanzee,1.0,66.0,102.0,11:27:18,2.0,Block_2-Block_1,block2,2324.0,rouneu_shades.bmp,sharneu_shades.bmp,2029.0,0.0,right
munar2015common,3,84ms,2013,08,02,6.0,kofi,8,m,chimpanzee,1.0,66.0,92.0,10:57:42,2.0,Block_2-Block_1,block2,2451.0,rouneu_figureblock.bmp,sharneu_figureblock.bmp,652.0,0.0,left
munar2015common,3,84ms,2013,08,02,7.0,lobo,9,m,chimpanzee,1.0,66.0,71.0,10:29:51,1.0,Block_1-Block_2,block1,2790.0,sharneu_teapot.bmp,sharneu_teakettle.bmp,764.0,0.0,right
munar2015common,3,84ms,2013,09,06,8.0,kibara,9,f,gorilla,1.0,66.0,114.0,09:01:01,2.0,Block_2-Block_1,block2,1056.0,rouneu_watch.bmp,rouneu_clock.bmp,1816.0,0.0,left
munar2015common,3,84ms,2013,09,06,9.0,viringika,18,f,gorilla,1.0,66.0,124.0,09:21:47,2.0,Block_2-Block_1,block2,2856.0,rouneu_shovel.bmp,rouneu_spatula.bmp,404.0,1.0,left
munar2015common,3,84ms,2013,06,09,2.0,jahaga,20,f,chimpanzee,1.0,67.0,39.0,09:40:02,1.0,Block_1-Block_2,block1,1966.0,rouneu_battery.bmp,rouneu_lantern.bmp,290.0,1.0,right
munar2015common,3,84ms,2013,06,09,3.0,fifi,20,f,chimpanzee,1.0,67.0,5.0,09:58:48,1.0,Block_1-Block_2,block1,1208.0,rouneu_briefcase.bmp,sharneu_briefcase.bmp,424.0,1.0,left
munar2015common,3,84ms,2013,06,09,4.0,alex,12,m,chimpanzee,1.0,67.0,123.0,10:18:34,2.0,Block_2-Block_1,block2,1028.0,rouneu_sponge.bmp,rouneu_scrubbrush.bmp,692.0,1.0,left
munar2015common,3,84ms,2013,08,02,5.0,lome,11,m,chimpanzee,1.0,67.0,94.0,11:27:18,2.0,Block_2-Block_1,block2,860.0,rouneu_flower.bmp,sharneu_flower.bmp,682.0,1.0,left
munar2015common,3,84ms,2013,08,02,6.0,kofi,8,m,chimpanzee,1.0,67.0,132.0,10:57:42,2.0,Block_2-Block_1,block2,506.0,sharneu_watch.bmp,sharneu_clock.bmp,626.0,0.0,left
munar2015common,3,84ms,2013,08,02,7.0,lobo,9,m,chimpanzee,1.0,67.0,21.0,10:29:51,1.0,Block_1-Block_2,block1,1049.0,sharneu_figuretriangle.bmp,rouneu_figuretriangle.bmp,1176.0,0.0,right
munar2015common,3,84ms,2013,09,06,8.0,kibara,9,f,gorilla,1.0,67.0,129.0,09:01:01,2.0,Block_2-Block_1,block2,554.0,sharneu_lantern.bmp,sharneu_battery.bmp,479.0,0.0,right
munar2015common,3,84ms,2013,09,06,9.0,viringika,18,f,gorilla,1.0,67.0,87.0,09:21:47,2.0,Block_2-Block_1,block2,2558.0,sharneu_chineselantern.bmp,rouneu_chineselantern.bmp,368.0,0.0,left
munar2015common,3,84ms,2013,06,09,2.0,jahaga,20,f,chimpanzee,1.0,68.0,27.0,09:40:02,1.0,Block_1-Block_2,block1,1915.0,sharneu_mirrorbig.bmp,rouneu_mirrorbig.bmp,288.0,0.0,right
munar2015common,3,84ms,2013,06,09,3.0,fifi,20,f,chimpanzee,1.0,68.0,42.0,09:58:48,1.0,Block_1-Block_2,block1,1356.0,rouneu_clock.bmp,rouneu_watch.bmp,416.0,0.0,left
munar2015common,3,84ms,2013,06,09,4.0,alex,12,m,chimpanzee,1.0,68.0,132.0,10:18:34,2.0,Block_2-Block_1,block2,1139.0,sharneu_watch.bmp,sharneu_clock.bmp,525.0,0.0,right
munar2015common,3,84ms,2013,08,02,5.0,lome,11,m,chimpanzee,1.0,68.0,97.0,11:27:18,2.0,Block_2-Block_1,block2,3212.0,rouneu_gem.bmp,sharneu_gem.bmp,683.0,0.0,right
munar2015common,3,84ms,2013,08,02,6.0,kofi,8,m,chimpanzee,1.0,68.0,87.0,10:57:42,2.0,Block_2-Block_1,block2,564.0,sharneu_chineselantern.bmp,rouneu_chineselantern.bmp,1078.0,1.0,left
munar2015common,3,84ms,2013,08,02,7.0,lobo,9,m,chimpanzee,1.0,68.0,41.0,10:29:51,1.0,Block_1-Block_2,block1,454.0,rouneu_calculator.bmp,rouneu_pda.bmp,1001.0,1.0,right
munar2015common,3,84ms,2013,09,06,8.0,kibara,9,f,gorilla,1.0,68.0,125.0,09:01:01,2.0,Block_2-Block_1,block2,1022.0,rouneu_teakettle.bmp,rouneu_teapot.bmp,514.0,1.0,left
munar2015common,3,84ms,2013,09,06,9.0,viringika,18,f,gorilla,1.0,68.0,106.0,09:21:47,2.0,Block_2-Block_1,block2,1645.0,rouneu_tree.bmp,sharneu_tree.bmp,363.0,1.0,left
munar2015common,3,84ms,2013,06,09,2.0,jahaga,20,f,chimpanzee,1.0,69.0,41.0,09:40:02,1.0,Block_1-Block_2,block1,1399.0,rouneu_calculator.bmp,rouneu_pda.bmp,319.0,0.0,right
munar2015common,3,84ms,2013,06,09,3.0,fifi,20,f,chimpanzee,1.0,69.0,39.0,09:58:48,1.0,Block_1-Block_2,block1,515.0,rouneu_battery.bmp,rouneu_lantern.bmp,448.0,0.0,left
munar2015common,3,84ms,2013,06,09,4.0,alex,12,m,chimpanzee,1.0,69.0,78.0,10:18:34,2.0,Block_2-Block_1,block2,563.0,sharneu_brush.bmp,rouneu_brush.bmp,823.0,1.0,right
munar2015common,3,84ms,2013,08,02,5.0,lome,11,m,chimpanzee,1.0,69.0,98.0,11:27:18,2.0,Block_2-Block_1,block2,2884.0,rouneu_leaf.bmp,sharneu_leaf.bmp,582.0,0.0,right
munar2015common,3,84ms,2013,08,02,6.0,kofi,8,m,chimpanzee,1.0,69.0,103.0,10:57:42,2.0,Block_2-Block_1,block2,8966.0,rouneu_stool.bmp,sharneu_stool.bmp,592.0,1.0,right
munar2015common,3,84ms,2013,08,02,7.0,lobo,9,m,chimpanzee,1.0,69.0,62.0,10:29:51,1.0,Block_1-Block_2,block1,2502.0,sharneu_couch.bmp,sharneu_officechair.bmp,4140.0,1.0,right
munar2015common,3,84ms,2013,09,06,8.0,kibara,9,f,gorilla,1.0,69.0,79.0,09:01:01,2.0,Block_2-Block_1,block2,757.0,sharneu_brushsmall.bmp,rouneu_brushsmall.bmp,2426.0,1.0,right
munar2015common,3,84ms,2013,09,06,9.0,viringika,18,f,gorilla,1.0,69.0,102.0,09:21:47,2.0,Block_2-Block_1,block2,3133.0,rouneu_shades.bmp,sharneu_shades.bmp,414.0,1.0,left
munar2015common,3,84ms,2013,06,09,2.0,jahaga,20,f,chimpanzee,1.0,70.0,62.0,09:40:02,1.0,Block_1-Block_2,block1,2097.0,sharneu_couch.bmp,sharneu_officechair.bmp,318.0,1.0,right
munar2015common,3,84ms,2013,06,09,3.0,fifi,20,f,chimpanzee,1.0,70.0,45.0,09:58:48,1.0,Block_1-Block_2,block1,762.0,rouneu_lipstick.bmp,rouneu_nailpolish.bmp,1223.0,1.0,left
munar2015common,3,84ms,2013,06,09,4.0,alex,12,m,chimpanzee,1.0,70.0,105.0,10:18:34,2.0,Block_2-Block_1,block2,3555.0,rouneu_tent.bmp,sharneu_tent.bmp,406.0,0.0,left
munar2015common,3,84ms,2013,08,02,5.0,lome,11,m,chimpanzee,1.0,70.0,95.0,11:27:18,2.0,Block_2-Block_1,block2,983.0,rouneu_flowerpot.bmp,sharneu_flowerpot.bmp,490.0,1.0,left
munar2015common,3,84ms,2013,08,02,6.0,kofi,8,m,chimpanzee,1.0,70.0,80.0,10:57:42,2.0,Block_2-Block_1,block2,16023.0,sharneu_bucket.bmp,rouneu_bucket.bmp,672.0,0.0,left
munar2015common,3,84ms,2013,08,02,7.0,lobo,9,m,chimpanzee,1.0,70.0,44.0,10:29:51,1.0,Block_1-Block_2,block1,672.0,rouneu_couch.bmp,rouneu_officechair.bmp,9442.0,0.0,left
munar2015common,3,84ms,2013,09,06,8.0,kibara,9,f,gorilla,1.0,70.0,118.0,09:01:01,2.0,Block_2-Block_1,block2,4186.0,rouneu_printer.bmp,rouneu_mailbox.bmp,549.0,0.0,left
munar2015common,3,84ms,2013,09,06,9.0,viringika,18,f,gorilla,1.0,70.0,126.0,09:21:47,2.0,Block_2-Block_1,block2,3185.0,rouneu_camera.bmp,rouneu_television.bmp,430.0,0.0,right
munar2015common,3,84ms,2013,06,09,2.0,jahaga,20,f,chimpanzee,1.0,71.0,59.0,09:40:02,1.0,Block_1-Block_2,block1,871.0,sharneu_calculator.bmp,sharneu_pda.bmp,304.0,0.0,right
munar2015common,3,84ms,2013,06,09,3.0,fifi,20,f,chimpanzee,1.0,71.0,44.0,09:58:48,1.0,Block_1-Block_2,block1,2310.0,rouneu_couch.bmp,rouneu_officechair.bmp,510.0,1.0,left
munar2015common,3,84ms,2013,06,09,4.0,alex,12,m,chimpanzee,1.0,71.0,93.0,10:18:34,2.0,Block_2-Block_1,block2,361.0,rouneu_figuretriangle.bmp,sharneu_figuretriangle.bmp,471.0,1.0,left
munar2015common,3,84ms,2013,08,02,5.0,lome,11,m,chimpanzee,1.0,71.0,74.0,11:27:18,2.0,Block_2-Block_1,block2,1231.0,sharneu_basket2.bmp,rouneu_basket2.bmp,618.0,1.0,right
munar2015common,3,84ms,2013,08,02,6.0,kofi,8,m,chimpanzee,1.0,71.0,97.0,10:57:42,2.0,Block_2-Block_1,block2,3970.0,rouneu_gem.bmp,sharneu_gem.bmp,654.0,0.0,left
munar2015common,3,84ms,2013,08,02,7.0,lobo,9,m,chimpanzee,1.0,71.0,19.0,10:29:51,1.0,Block_1-Block_2,block1,1070.0,sharneu_cuttingboard.bmp,rouneu_cuttingboard.bmp,1022.0,0.0,right
munar2015common,3,84ms,2013,09,06,8.0,kibara,9,f,gorilla,1.0,71.0,75.0,09:01:01,2.0,Block_2-Block_1,block2,804.0,sharneu_bench.bmp,rouneu_bench.bmp,465.0,0.0,right
munar2015common,3,84ms,2013,09,06,9.0,viringika,18,f,gorilla,1.0,71.0,121.0,09:21:47,2.0,Block_2-Block_1,block2,171.0,rouneu_toaster.bmp,rouneu_radioantique.bmp,403.0,0.0,left
munar2015common,3,84ms,2013,06,09,2.0,jahaga,20,f,chimpanzee,1.0,72.0,6.0,09:40:02,1.0,Block_1-Block_2,block1,383.0,rouneu_brush.bmp,sharneu_brush.bmp,399.0,1.0,left
munar2015common,3,84ms,2013,06,09,3.0,fifi,20,f,chimpanzee,1.0,72.0,58.0,09:58:48,1.0,Block_1-Block_2,block1,1448.0,sharneu_boxlock.bmp,sharneu_mirror.bmp,349.0,0.0,left
munar2015common,3,84ms,2013,06,09,4.0,alex,12,m,chimpanzee,1.0,72.0,127.0,10:18:34,2.0,Block_2-Block_1,block2,1591.0,sharneu_phone.bmp,sharneu_answering.bmp,488.0,0.0,right
munar2015common,3,84ms,2013,08,02,5.0,lome,11,m,chimpanzee,1.0,72.0,118.0,11:27:18,2.0,Block_2-Block_1,block2,3486.0,rouneu_printer.bmp,rouneu_mailbox.bmp,574.0,0.0,right
munar2015common,3,84ms,2013,08,02,6.0,kofi,8,m,chimpanzee,1.0,72.0,144.0,10:57:42,2.0,Block_2-Block_1,block2,2131.0,sharneu_camera.bmp,sharneu_television.bmp,588.0,1.0,left
munar2015common,3,84ms,2013,08,02,7.0,lobo,9,m,chimpanzee,1.0,72.0,10.0,10:29:51,1.0,Block_1-Block_2,block1,909.0,rouneu_butterfly.bmp,sharneu_butterfly.bmp,1295.0,1.0,right
munar2015common,3,84ms,2013,09,06,8.0,kibara,9,f,gorilla,1.0,72.0,111.0,09:01:01,2.0,Block_2-Block_1,block2,817.0,rouneu_lantern.bmp,rouneu_battery.bmp,501.0,1.0,left
munar2015common,3,84ms,2013,09,06,9.0,viringika,18,f,gorilla,1.0,72.0,76.0,09:21:47,2.0,Block_2-Block_1,block2,1687.0,sharneu_birdhouse.bmp,rouneu_birdhouse.bmp,364.0,1.0,left
munar2015common,3,84ms,2013,06,09,2.0,jahaga,20,f,chimpanzee,1.0,73.0,33.0,09:40:02,1.0,Block_1-Block_2,block1,618.0,sharneu_tent.bmp,rouneu_tent.bmp,322.0,0.0,left
munar2015common,3,84ms,2013,06,09,3.0,fifi,20,f,chimpanzee,1.0,73.0,16.0,09:58:48,1.0,Block_1-Block_2,block1,133.0,rouneu_chocolate.bmp,sharneu_chocolate.bmp,519.0,1.0,left
munar2015common,3,84ms,2013,06,09,4.0,alex,12,m,chimpanzee,1.0,73.0,106.0,10:18:34,2.0,Block_2-Block_1,block2,349.0,rouneu_tree.bmp,sharneu_tree.bmp,339.0,0.0,left
munar2015common,3,84ms,2013,08,02,5.0,lome,11,m,chimpanzee,1.0,73.0,133.0,11:27:18,2.0,Block_2-Block_1,block2,382.0,sharneu_vcr.bmp,sharneu_clockalarm.bmp,429.0,0.0,left
munar2015common,3,84ms,2013,08,02,6.0,kofi,8,m,chimpanzee,1.0,73.0,101.0,10:57:42,2.0,Block_2-Block_1,block2,8761.0,rouneu_pictureframe.bmp,sharneu_pictureframe.bmp,607.0,0.0,left
munar2015common,3,84ms,2013,08,02,7.0,lobo,9,m,chimpanzee,1.0,73.0,72.0,10:29:51,1.0,Block_1-Block_2,block1,7313.0,sharneu_television.bmp,sharneu_camera.bmp,675.0,1.0,right
munar2015common,3,84ms,2013,09,06,8.0,kibara,9,f,gorilla,1.0,73.0,121.0,09:01:01,2.0,Block_2-Block_1,block2,3059.0,rouneu_toaster.bmp,rouneu_radioantique.bmp,624.0,0.0,right
