study_id,experiment,experiment_name,year,month,day,subject,participant,age_in_years,sex,species,session,trial,trial_id,session_time,block_order,block_order_codes,block,fixation_rt,image_left,image_right,mask_rt_incl_buffer,reward,selected_picture
munar2015common,4,until_response,2013,06,14,1.0,gertrudia,20,f,chimpanzee,1.0,1.0,,08:51:13,2.0,Block_2-Block_1,training,28746.0,control_acordion.bmp,control_cherry.bmp,1153.0,1.0,right
munar2015common,4,until_response,2013,06,14,2.0,jahaga,20,f,chimpanzee,1.0,1.0,,09:11:41,2.0,Block_2-Block_1,training,3187.0,control_acorn.bmp,control_chili.bmp,761.0,1.0,left
munar2015common,4,until_response,2013,06,14,3.0,fifi,20,f,chimpanzee,1.0,1.0,,09:28:00,2.0,Block_2-Block_1,training,5120.0,control_cane.bmp,control_leaf.bmp,734.0,1.0,left
munar2015common,4,until_response,2013,06,14,4.0,alex,12,m,chimpanzee,1.0,1.0,,09:44:42,2.0,Block_2-Block_1,training,514.0,control_acordion.bmp,control_cherry.bmp,588.0,1.0,left
munar2015common,4,until_response,2013,08,07,5.0,lome,11,m,chimpanzee,1.0,1.0,,10:22:37,1.0,Block_1-Block_2,training,5286.0,control_barrell.bmp,control_harp.bmp,988.0,1.0,left
munar2015common,4,until_response,2013,08,07,6.0,kofi,8,m,chimpanzee,1.0,1.0,,09:45:24,2.0,Block_2-Block_1,training,10893.0,control_bowtiepasta.bmp,control_icecream.bmp,947.0,1.0,right
munar2015common,4,until_response,2013,08,07,7.0,lobo,9,m,chimpanzee,1.0,1.0,,10:04:07,2.0,Block_2-Block_1,training,500.0,control_cane.bmp,control_leaf.bmp,704.0,1.0,left
munar2015common,4,until_response,2013,09,11,8.0,kibara,9,f,gorilla,1.0,1.0,,08:54:42,1.0,Block_1-Block_2,training,58.0,control_barrell.bmp,control_harp.bmp,1980.0,1.0,left
munar2015common,4,until_response,2013,09,11,9.0,viringika,18,f,gorilla,1.0,1.0,,09:12:41,2.0,Block_2-Block_1,training,1741.0,control_africanmask.bmp,control_feather.bmp,5427.0,1.0,left
munar2015common,4,until_response,2013,06,14,1.0,gertrudia,20,f,chimpanzee,1.0,2.0,,08:51:13,2.0,Block_2-Block_1,training,2074.0,control_anchor.bmp,control_fork.bmp,2002.0,0.0,left
munar2015common,4,until_response,2013,06,14,2.0,jahaga,20,f,chimpanzee,1.0,2.0,,09:11:41,2.0,Block_2-Block_1,training,1358.0,control_bowtiepasta.bmp,control_icecream.bmp,571.0,0.0,right
munar2015common,4,until_response,2013,06,14,3.0,fifi,20,f,chimpanzee,1.0,2.0,,09:28:00,2.0,Block_2-Block_1,training,7051.0,control_acorn.bmp,control_chili.bmp,627.0,0.0,left
munar2015common,4,until_response,2013,06,14,4.0,alex,12,m,chimpanzee,1.0,2.0,,09:44:42,2.0,Block_2-Block_1,training,240.0,control_billiard.bmp,control_helm.bmp,5061.0,0.0,left
munar2015common,4,until_response,2013,08,07,5.0,lome,11,m,chimpanzee,1.0,2.0,,10:22:37,1.0,Block_1-Block_2,training,9010.0,control_billiard.bmp,control_helm.bmp,696.0,0.0,right
munar2015common,4,until_response,2013,08,07,6.0,kofi,8,m,chimpanzee,1.0,2.0,,09:45:24,2.0,Block_2-Block_1,training,1179.0,control_africanmask.bmp,control_feather.bmp,776.0,0.0,left
munar2015common,4,until_response,2013,08,07,7.0,lobo,9,m,chimpanzee,1.0,2.0,,10:04:07,2.0,Block_2-Block_1,training,3199.0,control_barrell.bmp,control_harp.bmp,994.0,0.0,left
munar2015common,4,until_response,2013,09,11,8.0,kibara,9,f,gorilla,1.0,2.0,,08:54:42,1.0,Block_1-Block_2,training,627.0,control_billiard.bmp,control_helm.bmp,1597.0,0.0,left
munar2015common,4,until_response,2013,09,11,9.0,viringika,18,f,gorilla,1.0,2.0,,09:12:41,2.0,Block_2-Block_1,training,2259.0,control_acorn.bmp,control_chili.bmp,2226.0,0.0,left
munar2015common,4,until_response,2013,06,14,1.0,gertrudia,20,f,chimpanzee,1.0,3.0,,08:51:13,2.0,Block_2-Block_1,training,20.0,control_cane.bmp,control_leaf.bmp,697.0,1.0,right
munar2015common,4,until_response,2013,06,14,2.0,jahaga,20,f,chimpanzee,1.0,3.0,,09:11:41,2.0,Block_2-Block_1,training,358.0,control_barrell.bmp,control_harp.bmp,592.0,0.0,right
munar2015common,4,until_response,2013,06,14,3.0,fifi,20,f,chimpanzee,1.0,3.0,,09:28:00,2.0,Block_2-Block_1,training,275.0,control_africanmask.bmp,control_feather.bmp,602.0,1.0,left
munar2015common,4,until_response,2013,06,14,4.0,alex,12,m,chimpanzee,1.0,3.0,,09:44:42,2.0,Block_2-Block_1,training,280.0,control_africanmask.bmp,control_feather.bmp,737.0,1.0,left
munar2015common,4,until_response,2013,08,07,5.0,lome,11,m,chimpanzee,1.0,3.0,,10:22:37,1.0,Block_1-Block_2,training,1691.0,control_acorn.bmp,control_chili.bmp,1551.0,1.0,left
munar2015common,4,until_response,2013,08,07,6.0,kofi,8,m,chimpanzee,1.0,3.0,,09:45:24,2.0,Block_2-Block_1,training,191.0,control_anchor.bmp,control_fork.bmp,711.0,0.0,right
munar2015common,4,until_response,2013,08,07,7.0,lobo,9,m,chimpanzee,1.0,3.0,,10:04:07,2.0,Block_2-Block_1,training,598.0,control_billiard.bmp,control_helm.bmp,848.0,0.0,right
munar2015common,4,until_response,2013,09,11,8.0,kibara,9,f,gorilla,1.0,3.0,,08:54:42,1.0,Block_1-Block_2,training,71.0,control_acordion.bmp,control_cherry.bmp,753.0,1.0,left
munar2015common,4,until_response,2013,09,11,9.0,viringika,18,f,gorilla,1.0,3.0,,09:12:41,2.0,Block_2-Block_1,training,455.0,control_anchor.bmp,control_fork.bmp,811.0,0.0,right
munar2015common,4,until_response,2013,06,14,1.0,gertrudia,20,f,chimpanzee,1.0,4.0,,08:51:13,2.0,Block_2-Block_1,training,981.0,control_acorn.bmp,control_chili.bmp,1070.0,0.0,left
munar2015common,4,until_response,2013,06,14,2.0,jahaga,20,f,chimpanzee,1.0,4.0,,09:11:41,2.0,Block_2-Block_1,training,286.0,control_anchor.bmp,control_fork.bmp,607.0,1.0,right
munar2015common,4,until_response,2013,06,14,3.0,fifi,20,f,chimpanzee,1.0,4.0,,09:28:00,2.0,Block_2-Block_1,training,1454.0,control_bowtiepasta.bmp,control_icecream.bmp,878.0,0.0,left
munar2015common,4,until_response,2013,06,14,4.0,alex,12,m,chimpanzee,1.0,4.0,,09:44:42,2.0,Block_2-Block_1,training,831.0,control_anchor.bmp,control_fork.bmp,388.0,0.0,left
munar2015common,4,until_response,2013,08,07,5.0,lome,11,m,chimpanzee,1.0,4.0,,10:22:37,1.0,Block_1-Block_2,training,2117.0,control_acordion.bmp,control_cherry.bmp,654.0,0.0,right
munar2015common,4,until_response,2013,08,07,6.0,kofi,8,m,chimpanzee,1.0,4.0,,09:45:24,2.0,Block_2-Block_1,training,452.0,control_cane.bmp,control_leaf.bmp,845.0,1.0,left
munar2015common,4,until_response,2013,08,07,7.0,lobo,9,m,chimpanzee,1.0,4.0,,10:04:07,2.0,Block_2-Block_1,training,523.0,control_bowtiepasta.bmp,control_icecream.bmp,720.0,1.0,right
munar2015common,4,until_response,2013,09,11,8.0,kibara,9,f,gorilla,1.0,4.0,,08:54:42,1.0,Block_1-Block_2,training,2204.0,control_cane.bmp,control_leaf.bmp,695.0,0.0,right
munar2015common,4,until_response,2013,09,11,9.0,viringika,18,f,gorilla,1.0,4.0,,09:12:41,2.0,Block_2-Block_1,training,494.0,control_acordion.bmp,control_cherry.bmp,3552.0,1.0,left
munar2015common,4,until_response,2013,06,14,1.0,gertrudia,20,f,chimpanzee,1.0,5.0,,08:51:13,2.0,Block_2-Block_1,training,534.0,control_barrell.bmp,control_harp.bmp,925.0,0.0,left
munar2015common,4,until_response,2013,06,14,2.0,jahaga,20,f,chimpanzee,1.0,5.0,,09:11:41,2.0,Block_2-Block_1,training,857.0,control_cane.bmp,control_leaf.bmp,620.0,1.0,left
munar2015common,4,until_response,2013,06,14,3.0,fifi,20,f,chimpanzee,1.0,5.0,,09:28:00,2.0,Block_2-Block_1,training,160.0,control_barrell.bmp,control_harp.bmp,583.0,1.0,left
munar2015common,4,until_response,2013,06,14,4.0,alex,12,m,chimpanzee,1.0,5.0,,09:44:42,2.0,Block_2-Block_1,training,209.0,control_bowtiepasta.bmp,control_icecream.bmp,672.0,1.0,right
munar2015common,4,until_response,2013,08,07,5.0,lome,11,m,chimpanzee,1.0,5.0,,10:22:37,1.0,Block_1-Block_2,training,472.0,control_bowtiepasta.bmp,control_icecream.bmp,789.0,0.0,left
munar2015common,4,until_response,2013,08,07,6.0,kofi,8,m,chimpanzee,1.0,5.0,,09:45:24,2.0,Block_2-Block_1,training,1438.0,control_acorn.bmp,control_chili.bmp,858.0,1.0,left
munar2015common,4,until_response,2013,08,07,7.0,lobo,9,m,chimpanzee,1.0,5.0,,10:04:07,2.0,Block_2-Block_1,training,1358.0,control_africanmask.bmp,control_feather.bmp,762.0,0.0,right
munar2015common,4,until_response,2013,09,11,8.0,kibara,9,f,gorilla,1.0,5.0,,08:54:42,1.0,Block_1-Block_2,training,407.0,control_anchor.bmp,control_fork.bmp,586.0,1.0,left
munar2015common,4,until_response,2013,09,11,9.0,viringika,18,f,gorilla,1.0,5.0,,09:12:41,2.0,Block_2-Block_1,training,1829.0,control_barrell.bmp,control_harp.bmp,676.0,0.0,left
munar2015common,4,until_response,2013,06,14,1.0,gertrudia,20,f,chimpanzee,1.0,6.0,,08:51:13,2.0,Block_2-Block_1,training,382.0,control_bowtiepasta.bmp,control_icecream.bmp,1556.0,1.0,right
munar2015common,4,until_response,2013,06,14,2.0,jahaga,20,f,chimpanzee,1.0,6.0,,09:11:41,2.0,Block_2-Block_1,training,6671.0,control_africanmask.bmp,control_feather.bmp,590.0,0.0,right
munar2015common,4,until_response,2013,06,14,3.0,fifi,20,f,chimpanzee,1.0,6.0,,09:28:00,2.0,Block_2-Block_1,training,1897.0,control_anchor.bmp,control_fork.bmp,588.0,0.0,left
munar2015common,4,until_response,2013,06,14,4.0,alex,12,m,chimpanzee,1.0,6.0,,09:44:42,2.0,Block_2-Block_1,training,2647.0,control_barrell.bmp,control_harp.bmp,808.0,0.0,left
munar2015common,4,until_response,2013,08,07,5.0,lome,11,m,chimpanzee,1.0,6.0,,10:22:37,1.0,Block_1-Block_2,training,34.0,control_anchor.bmp,control_fork.bmp,934.0,1.0,right
munar2015common,4,until_response,2013,08,07,6.0,kofi,8,m,chimpanzee,1.0,6.0,,09:45:24,2.0,Block_2-Block_1,training,7926.0,control_barrell.bmp,control_harp.bmp,705.0,0.0,left
munar2015common,4,until_response,2013,08,07,7.0,lobo,9,m,chimpanzee,1.0,6.0,,10:04:07,2.0,Block_2-Block_1,training,690.0,control_anchor.bmp,control_fork.bmp,1300.0,1.0,right
munar2015common,4,until_response,2013,09,11,8.0,kibara,9,f,gorilla,1.0,6.0,,08:54:42,1.0,Block_1-Block_2,training,3003.0,control_bowtiepasta.bmp,control_icecream.bmp,719.0,0.0,left
munar2015common,4,until_response,2013,09,11,9.0,viringika,18,f,gorilla,1.0,6.0,,09:12:41,2.0,Block_2-Block_1,training,78.0,control_billiard.bmp,control_helm.bmp,873.0,1.0,right
munar2015common,4,until_response,2013,06,14,1.0,gertrudia,20,f,chimpanzee,1.0,7.0,,08:51:13,2.0,Block_2-Block_1,training,1290.0,control_africanmask.bmp,control_feather.bmp,1511.0,0.0,left
munar2015common,4,until_response,2013,06,14,2.0,jahaga,20,f,chimpanzee,1.0,7.0,,09:11:41,2.0,Block_2-Block_1,training,1105.0,control_acordion.bmp,control_cherry.bmp,738.0,0.0,right
munar2015common,4,until_response,2013,06,14,3.0,fifi,20,f,chimpanzee,1.0,7.0,,09:28:00,2.0,Block_2-Block_1,training,129.0,control_billiard.bmp,control_helm.bmp,536.0,0.0,left
munar2015common,4,until_response,2013,06,14,4.0,alex,12,m,chimpanzee,1.0,7.0,,09:44:42,2.0,Block_2-Block_1,training,573.0,control_cane.bmp,control_leaf.bmp,650.0,1.0,right
munar2015common,4,until_response,2013,08,07,5.0,lome,11,m,chimpanzee,1.0,7.0,,10:22:37,1.0,Block_1-Block_2,training,4464.0,control_cane.bmp,control_leaf.bmp,749.0,0.0,left
munar2015common,4,until_response,2013,08,07,6.0,kofi,8,m,chimpanzee,1.0,7.0,,09:45:24,2.0,Block_2-Block_1,training,120.0,control_billiard.bmp,control_helm.bmp,737.0,0.0,right
munar2015common,4,until_response,2013,08,07,7.0,lobo,9,m,chimpanzee,1.0,7.0,,10:04:07,2.0,Block_2-Block_1,training,2965.0,control_acorn.bmp,control_chili.bmp,732.0,0.0,right
munar2015common,4,until_response,2013,09,11,8.0,kibara,9,f,gorilla,1.0,7.0,,08:54:42,1.0,Block_1-Block_2,training,1203.0,control_africanmask.bmp,control_feather.bmp,634.0,1.0,left
munar2015common,4,until_response,2013,09,11,9.0,viringika,18,f,gorilla,1.0,7.0,,09:12:41,2.0,Block_2-Block_1,training,3611.0,control_cane.bmp,control_leaf.bmp,339.0,1.0,right
munar2015common,4,until_response,2013,06,14,1.0,gertrudia,20,f,chimpanzee,1.0,8.0,,08:51:13,2.0,Block_2-Block_1,training,982.0,control_billiard.bmp,control_helm.bmp,549.0,1.0,left
munar2015common,4,until_response,2013,06,14,2.0,jahaga,20,f,chimpanzee,1.0,8.0,,09:11:41,2.0,Block_2-Block_1,training,1500.0,control_billiard.bmp,control_helm.bmp,634.0,1.0,right
munar2015common,4,until_response,2013,06,14,3.0,fifi,20,f,chimpanzee,1.0,8.0,,09:28:00,2.0,Block_2-Block_1,training,307.0,control_acordion.bmp,control_cherry.bmp,590.0,1.0,left
munar2015common,4,until_response,2013,06,14,4.0,alex,12,m,chimpanzee,1.0,8.0,,09:44:42,2.0,Block_2-Block_1,training,2572.0,control_acorn.bmp,control_chili.bmp,489.0,0.0,left
munar2015common,4,until_response,2013,08,07,5.0,lome,11,m,chimpanzee,1.0,8.0,,10:22:37,1.0,Block_1-Block_2,training,393.0,control_africanmask.bmp,control_feather.bmp,813.0,1.0,right
munar2015common,4,until_response,2013,08,07,6.0,kofi,8,m,chimpanzee,1.0,8.0,,09:45:24,2.0,Block_2-Block_1,training,78.0,control_acordion.bmp,control_cherry.bmp,695.0,1.0,left
munar2015common,4,until_response,2013,08,07,7.0,lobo,9,m,chimpanzee,1.0,8.0,,10:04:07,2.0,Block_2-Block_1,training,1200.0,control_acordion.bmp,control_cherry.bmp,894.0,1.0,left
munar2015common,4,until_response,2013,09,11,8.0,kibara,9,f,gorilla,1.0,8.0,,08:54:42,1.0,Block_1-Block_2,training,3775.0,control_acorn.bmp,control_chili.bmp,674.0,0.0,left
munar2015common,4,until_response,2013,09,11,9.0,viringika,18,f,gorilla,1.0,8.0,,09:12:41,2.0,Block_2-Block_1,training,971.0,control_bowtiepasta.bmp,control_icecream.bmp,714.0,0.0,left
munar2015common,4,until_response,2013,06,14,1.0,gertrudia,20,f,chimpanzee,1.0,9.0,124.0,08:51:13,2.0,Block_2-Block_1,block2,2679.0,rouneu_shovel.bmp,rouneu_spatula.bmp,1318.0,0.0,right
munar2015common,4,until_response,2013,06,14,2.0,jahaga,20,f,chimpanzee,1.0,9.0,107.0,09:11:41,2.0,Block_2-Block_1,block2,8496.0,rouneu_vase.bmp,sharneu_vase.bmp,649.0,1.0,left
munar2015common,4,until_response,2013,06,14,3.0,fifi,20,f,chimpanzee,1.0,9.0,89.0,09:28:00,2.0,Block_2-Block_1,block2,889.0,sharneu_cookie.bmp,rouneu_cookie.bmp,1009.0,0.0,right
munar2015common,4,until_response,2013,06,14,4.0,alex,12,m,chimpanzee,1.0,9.0,93.0,09:44:42,2.0,Block_2-Block_1,block2,590.0,rouneu_figuretriangle.bmp,sharneu_figuretriangle.bmp,490.0,1.0,left
munar2015common,4,until_response,2013,08,07,5.0,lome,11,m,chimpanzee,1.0,9.0,15.0,10:22:37,1.0,Block_1-Block_2,block1,2971.0,rouneu_chineselantern.bmp,sharneu_chineselantern.bmp,1269.0,1.0,left
munar2015common,4,until_response,2013,08,07,6.0,kofi,8,m,chimpanzee,1.0,9.0,138.0,09:45:24,2.0,Block_2-Block_1,block2,5112.0,sharneu_remote.bmp,sharneu_phonecordless.bmp,817.0,0.0,left
munar2015common,4,until_response,2013,08,07,7.0,lobo,9,m,chimpanzee,1.0,9.0,74.0,10:04:07,2.0,Block_2-Block_1,block2,7309.0,sharneu_basket2.bmp,rouneu_basket2.bmp,774.0,1.0,right
munar2015common,4,until_response,2013,09,11,8.0,kibara,9,f,gorilla,1.0,9.0,1.0,08:54:42,1.0,Block_1-Block_2,block1,1454.0,rouneu_basket.bmp,sharneu_basket.bmp,945.0,1.0,left
munar2015common,4,until_response,2013,09,11,9.0,viringika,18,f,gorilla,1.0,9.0,84.0,09:12:41,2.0,Block_2-Block_1,block2,4836.0,sharneu_candletray.bmp,rouneu_candletray.bmp,926.0,1.0,left
munar2015common,4,until_response,2013,06,14,1.0,gertrudia,20,f,chimpanzee,1.0,10.0,80.0,08:51:13,2.0,Block_2-Block_1,block2,768.0,sharneu_bucket.bmp,rouneu_bucket.bmp,745.0,1.0,left
munar2015common,4,until_response,2013,06,14,2.0,jahaga,20,f,chimpanzee,1.0,10.0,93.0,09:11:41,2.0,Block_2-Block_1,block2,887.0,rouneu_figuretriangle.bmp,sharneu_figuretriangle.bmp,327.0,0.0,right
munar2015common,4,until_response,2013,06,14,3.0,fifi,20,f,chimpanzee,1.0,10.0,126.0,09:28:00,2.0,Block_2-Block_1,block2,104.0,rouneu_camera.bmp,rouneu_television.bmp,637.0,1.0,right
munar2015common,4,until_response,2013,06,14,4.0,alex,12,m,chimpanzee,1.0,10.0,81.0,09:44:42,2.0,Block_2-Block_1,block2,4191.0,sharneu_bundtpan.bmp,rouneu_bundtpan.bmp,433.0,0.0,left
munar2015common,4,until_response,2013,08,07,5.0,lome,11,m,chimpanzee,1.0,10.0,42.0,10:22:37,1.0,Block_1-Block_2,block1,3397.0,rouneu_clock.bmp,rouneu_watch.bmp,1338.0,0.0,left
munar2015common,4,until_response,2013,08,07,6.0,kofi,8,m,chimpanzee,1.0,10.0,91.0,09:45:24,2.0,Block_2-Block_1,block2,472.0,rouneu_cuttingboard.bmp,sharneu_cuttingboard.bmp,1049.0,1.0,right
munar2015common,4,until_response,2013,08,07,7.0,lobo,9,m,chimpanzee,1.0,10.0,143.0,10:04:07,2.0,Block_2-Block_1,block2,6852.0,sharneu_teakettle.bmp,sharneu_teapot.bmp,638.0,0.0,right
munar2015common,4,until_response,2013,09,11,8.0,kibara,9,f,gorilla,1.0,10.0,43.0,08:54:42,1.0,Block_1-Block_2,block1,3665.0,rouneu_clockalarm.bmp,rouneu_vcr.bmp,704.0,0.0,left
munar2015common,4,until_response,2013,09,11,9.0,viringika,18,f,gorilla,1.0,10.0,92.0,09:12:41,2.0,Block_2-Block_1,block2,4990.0,rouneu_figureblock.bmp,sharneu_figureblock.bmp,1116.0,0.0,left
munar2015common,4,until_response,2013,06,14,1.0,gertrudia,20,f,chimpanzee,1.0,11.0,115.0,08:51:13,2.0,Block_2-Block_1,block2,3684.0,rouneu_vcr.bmp,rouneu_clockalarm.bmp,1085.0,1.0,right
munar2015common,4,until_response,2013,06,14,2.0,jahaga,20,f,chimpanzee,1.0,11.0,141.0,09:11:41,2.0,Block_2-Block_1,block2,262.0,sharneu_sponge.bmp,sharneu_scrubbrush.bmp,1065.0,0.0,right
munar2015common,4,until_response,2013,06,14,3.0,fifi,20,f,chimpanzee,1.0,11.0,81.0,09:28:00,2.0,Block_2-Block_1,block2,3095.0,sharneu_bundtpan.bmp,rouneu_bundtpan.bmp,546.0,0.0,left
munar2015common,4,until_response,2013,06,14,4.0,alex,12,m,chimpanzee,1.0,11.0,85.0,09:44:42,2.0,Block_2-Block_1,block2,283.0,sharneu_canister.bmp,rouneu_canister.bmp,523.0,1.0,left
munar2015common,4,until_response,2013,08,07,5.0,lome,11,m,chimpanzee,1.0,11.0,57.0,10:22:37,1.0,Block_1-Block_2,block1,2060.0,sharneu_battery.bmp,sharneu_lantern.bmp,944.0,0.0,left
munar2015common,4,until_response,2013,08,07,6.0,kofi,8,m,chimpanzee,1.0,11.0,108.0,09:45:24,2.0,Block_2-Block_1,block2,2407.0,rouneu_windchime.bmp,sharneu_windchime.bmp,801.0,1.0,left
munar2015common,4,until_response,2013,08,07,7.0,lobo,9,m,chimpanzee,1.0,11.0,75.0,10:04:07,2.0,Block_2-Block_1,block2,769.0,sharneu_bench.bmp,rouneu_bench.bmp,886.0,1.0,right
munar2015common,4,until_response,2013,09,11,8.0,kibara,9,f,gorilla,1.0,11.0,10.0,08:54:42,1.0,Block_1-Block_2,block1,18.0,rouneu_butterfly.bmp,sharneu_butterfly.bmp,1530.0,1.0,right
munar2015common,4,until_response,2013,09,11,9.0,viringika,18,f,gorilla,1.0,11.0,131.0,09:12:41,2.0,Block_2-Block_1,block2,163.0,sharneu_pda.bmp,sharneu_calculator.bmp,1360.0,1.0,right
munar2015common,4,until_response,2013,06,14,1.0,gertrudia,20,f,chimpanzee,1.0,12.0,94.0,08:51:13,2.0,Block_2-Block_1,block2,8964.0,rouneu_flower.bmp,sharneu_flower.bmp,1734.0,0.0,left
munar2015common,4,until_response,2013,06,14,2.0,jahaga,20,f,chimpanzee,1.0,12.0,125.0,09:11:41,2.0,Block_2-Block_1,block2,427.0,rouneu_teakettle.bmp,rouneu_teapot.bmp,343.0,1.0,right
munar2015common,4,until_response,2013,06,14,3.0,fifi,20,f,chimpanzee,1.0,12.0,144.0,09:28:00,2.0,Block_2-Block_1,block2,180.0,sharneu_camera.bmp,sharneu_television.bmp,667.0,1.0,right
munar2015common,4,until_response,2013,06,14,4.0,alex,12,m,chimpanzee,1.0,12.0,142.0,09:44:42,2.0,Block_2-Block_1,block2,3060.0,sharneu_shovel.bmp,sharneu_spatula.bmp,614.0,0.0,right
munar2015common,4,until_response,2013,08,07,5.0,lome,11,m,chimpanzee,1.0,12.0,2.0,10:22:37,1.0,Block_1-Block_2,block1,2918.0,rouneu_basket2.bmp,sharneu_basket2.bmp,2096.0,1.0,left
munar2015common,4,until_response,2013,08,07,6.0,kofi,8,m,chimpanzee,1.0,12.0,77.0,09:45:24,2.0,Block_2-Block_1,block2,1219.0,sharneu_briefcase.bmp,rouneu_briefcase.bmp,656.0,0.0,right
munar2015common,4,until_response,2013,08,07,7.0,lobo,9,m,chimpanzee,1.0,12.0,95.0,10:04:07,2.0,Block_2-Block_1,block2,3497.0,rouneu_flowerpot.bmp,sharneu_flowerpot.bmp,708.0,0.0,left
munar2015common,4,until_response,2013,09,11,8.0,kibara,9,f,gorilla,1.0,12.0,6.0,08:54:42,1.0,Block_1-Block_2,block1,1357.0,rouneu_brush.bmp,sharneu_brush.bmp,1252.0,0.0,right
munar2015common,4,until_response,2013,09,11,9.0,viringika,18,f,gorilla,1.0,12.0,102.0,09:12:41,2.0,Block_2-Block_1,block2,3721.0,rouneu_shades.bmp,sharneu_shades.bmp,340.0,0.0,left
munar2015common,4,until_response,2013,06,14,1.0,gertrudia,20,f,chimpanzee,1.0,13.0,144.0,08:51:13,2.0,Block_2-Block_1,block2,821.0,sharneu_camera.bmp,sharneu_television.bmp,718.0,1.0,right
munar2015common,4,until_response,2013,06,14,2.0,jahaga,20,f,chimpanzee,1.0,13.0,117.0,09:11:41,2.0,Block_2-Block_1,block2,1452.0,rouneu_nailpolish.bmp,rouneu_lipstick.bmp,316.0,0.0,right
munar2015common,4,until_response,2013,06,14,3.0,fifi,20,f,chimpanzee,1.0,13.0,95.0,09:28:00,2.0,Block_2-Block_1,block2,8699.0,rouneu_flowerpot.bmp,sharneu_flowerpot.bmp,585.0,1.0,left
munar2015common,4,until_response,2013,06,14,4.0,alex,12,m,chimpanzee,1.0,13.0,131.0,09:44:42,2.0,Block_2-Block_1,block2,862.0,sharneu_pda.bmp,sharneu_calculator.bmp,2086.0,0.0,right
munar2015common,4,until_response,2013,08,07,5.0,lome,11,m,chimpanzee,1.0,13.0,49.0,10:22:37,1.0,Block_1-Block_2,block1,3821.0,rouneu_radioantique.bmp,rouneu_toaster.bmp,759.0,1.0,left
munar2015common,4,until_response,2013,08,07,6.0,kofi,8,m,chimpanzee,1.0,13.0,137.0,09:45:24,2.0,Block_2-Block_1,block2,884.0,sharneu_purse2.bmp,sharneu_padlock.bmp,714.0,0.0,left
munar2015common,4,until_response,2013,08,07,7.0,lobo,9,m,chimpanzee,1.0,13.0,83.0,10:04:07,2.0,Block_2-Block_1,block2,273.0,sharneu_candle.bmp,rouneu_candle.bmp,680.0,0.0,right
munar2015common,4,until_response,2013,09,11,8.0,kibara,9,f,gorilla,1.0,13.0,33.0,08:54:42,1.0,Block_1-Block_2,block1,610.0,sharneu_tent.bmp,rouneu_tent.bmp,689.0,0.0,left
munar2015common,4,until_response,2013,09,11,9.0,viringika,18,f,gorilla,1.0,13.0,96.0,09:12:41,2.0,Block_2-Block_1,block2,1850.0,rouneu_flowersandpot.bmp,sharneu_flowersandpot.bmp,368.0,0.0,left
munar2015common,4,until_response,2013,06,14,1.0,gertrudia,20,f,chimpanzee,1.0,14.0,125.0,08:51:13,2.0,Block_2-Block_1,block2,3972.0,rouneu_teakettle.bmp,rouneu_teapot.bmp,1050.0,0.0,left
munar2015common,4,until_response,2013,06,14,2.0,jahaga,20,f,chimpanzee,1.0,14.0,134.0,09:11:41,2.0,Block_2-Block_1,block2,657.0,sharneu_officechair.bmp,sharneu_couch.bmp,380.0,1.0,right
munar2015common,4,until_response,2013,06,14,3.0,fifi,20,f,chimpanzee,1.0,14.0,110.0,09:28:00,2.0,Block_2-Block_1,block2,809.0,rouneu_pizza.bmp,rouneu_ashtray.bmp,493.0,0.0,left
munar2015common,4,until_response,2013,06,14,4.0,alex,12,m,chimpanzee,1.0,14.0,96.0,09:44:42,2.0,Block_2-Block_1,block2,578.0,rouneu_flowersandpot.bmp,sharneu_flowersandpot.bmp,515.0,1.0,right
munar2015common,4,until_response,2013,08,07,5.0,lome,11,m,chimpanzee,1.0,14.0,23.0,10:22:37,1.0,Block_1-Block_2,block1,4363.0,sharneu_flowerpot.bmp,rouneu_flowerpot.bmp,938.0,0.0,right
munar2015common,4,until_response,2013,08,07,6.0,kofi,8,m,chimpanzee,1.0,14.0,134.0,09:45:24,2.0,Block_2-Block_1,block2,455.0,sharneu_officechair.bmp,sharneu_couch.bmp,979.0,1.0,right
munar2015common,4,until_response,2013,08,07,7.0,lobo,9,m,chimpanzee,1.0,14.0,85.0,10:04:07,2.0,Block_2-Block_1,block2,711.0,sharneu_canister.bmp,rouneu_canister.bmp,654.0,1.0,right
munar2015common,4,until_response,2013,09,11,8.0,kibara,9,f,gorilla,1.0,14.0,16.0,08:54:42,1.0,Block_1-Block_2,block1,172.0,rouneu_chocolate.bmp,sharneu_chocolate.bmp,609.0,1.0,left
munar2015common,4,until_response,2013,09,11,9.0,viringika,18,f,gorilla,1.0,14.0,140.0,09:12:41,2.0,Block_2-Block_1,block2,5176.0,sharneu_speaker.bmp,sharneu_recyclebin.bmp,1181.0,1.0,left
munar2015common,4,until_response,2013,06,14,1.0,gertrudia,20,f,chimpanzee,1.0,15.0,137.0,08:51:13,2.0,Block_2-Block_1,block2,1541.0,sharneu_purse2.bmp,sharneu_padlock.bmp,2372.0,0.0,left
munar2015common,4,until_response,2013,06,14,2.0,jahaga,20,f,chimpanzee,1.0,15.0,106.0,09:11:41,2.0,Block_2-Block_1,block2,1244.0,rouneu_tree.bmp,sharneu_tree.bmp,364.0,0.0,right
munar2015common,4,until_response,2013,06,14,3.0,fifi,20,f,chimpanzee,1.0,15.0,78.0,09:28:00,2.0,Block_2-Block_1,block2,594.0,sharneu_brush.bmp,rouneu_brush.bmp,614.0,1.0,left
munar2015common,4,until_response,2013,06,14,4.0,alex,12,m,chimpanzee,1.0,15.0,102.0,09:44:42,2.0,Block_2-Block_1,block2,2694.0,rouneu_shades.bmp,sharneu_shades.bmp,425.0,1.0,left
munar2015common,4,until_response,2013,08,07,5.0,lome,11,m,chimpanzee,1.0,15.0,48.0,10:22:37,1.0,Block_1-Block_2,block1,569.0,rouneu_phonecordless.bmp,rouneu_remote.bmp,896.0,1.0,left
munar2015common,4,until_response,2013,08,07,6.0,kofi,8,m,chimpanzee,1.0,15.0,140.0,09:45:24,2.0,Block_2-Block_1,block2,2574.0,sharneu_speaker.bmp,sharneu_recyclebin.bmp,851.0,0.0,left
munar2015common,4,until_response,2013,08,07,7.0,lobo,9,m,chimpanzee,1.0,15.0,97.0,10:04:07,2.0,Block_2-Block_1,block2,1649.0,rouneu_gem.bmp,sharneu_gem.bmp,763.0,0.0,left
munar2015common,4,until_response,2013,09,11,8.0,kibara,9,f,gorilla,1.0,15.0,52.0,08:54:42,1.0,Block_1-Block_2,block1,3411.0,rouneu_spatula.bmp,rouneu_shovel.bmp,643.0,1.0,right
munar2015common,4,until_response,2013,09,11,9.0,viringika,18,f,gorilla,1.0,15.0,95.0,09:12:41,2.0,Block_2-Block_1,block2,2295.0,rouneu_flowerpot.bmp,sharneu_flowerpot.bmp,1462.0,1.0,left
munar2015common,4,until_response,2013,06,14,1.0,gertrudia,20,f,chimpanzee,1.0,16.0,126.0,08:51:13,2.0,Block_2-Block_1,block2,97.0,rouneu_camera.bmp,rouneu_television.bmp,7587.0,1.0,right
munar2015common,4,until_response,2013,06,14,2.0,jahaga,20,f,chimpanzee,1.0,16.0,101.0,09:11:41,2.0,Block_2-Block_1,block2,422.0,rouneu_pictureframe.bmp,sharneu_pictureframe.bmp,339.0,1.0,right
munar2015common,4,until_response,2013,06,14,3.0,fifi,20,f,chimpanzee,1.0,16.0,90.0,09:28:00,2.0,Block_2-Block_1,block2,765.0,sharneu_cushion.bmp,rouneu_cushion.bmp,1049.0,0.0,left
munar2015common,4,until_response,2013,06,14,4.0,alex,12,m,chimpanzee,1.0,16.0,74.0,09:44:42,2.0,Block_2-Block_1,block2,1199.0,sharneu_basket2.bmp,rouneu_basket2.bmp,343.0,0.0,left
munar2015common,4,until_response,2013,08,07,5.0,lome,11,m,chimpanzee,1.0,16.0,8.0,10:22:37,1.0,Block_1-Block_2,block1,3201.0,rouneu_bucket.bmp,sharneu_bucket.bmp,835.0,0.0,right
munar2015common,4,until_response,2013,08,07,6.0,kofi,8,m,chimpanzee,1.0,16.0,82.0,09:45:24,2.0,Block_2-Block_1,block2,32.0,sharneu_butterfly.bmp,rouneu_butterfly.bmp,1139.0,1.0,left
munar2015common,4,until_response,2013,08,07,7.0,lobo,9,m,chimpanzee,1.0,16.0,128.0,10:04:07,2.0,Block_2-Block_1,block2,561.0,sharneu_pizza.bmp,sharneu_ashtray.bmp,664.0,1.0,right
munar2015common,4,until_response,2013,09,11,8.0,kibara,9,f,gorilla,1.0,16.0,35.0,08:54:42,1.0,Block_1-Block_2,block1,3872.0,sharneu_vase.bmp,rouneu_vase.bmp,1038.0,0.0,left
munar2015common,4,until_response,2013,09,11,9.0,viringika,18,f,gorilla,1.0,16.0,100.0,09:12:41,2.0,Block_2-Block_1,block2,4429.0,rouneu_pan.bmp,sharneu_pan.bmp,692.0,0.0,right
munar2015common,4,until_response,2013,06,14,1.0,gertrudia,20,f,chimpanzee,1.0,17.0,118.0,08:51:13,2.0,Block_2-Block_1,block2,1139.0,rouneu_printer.bmp,rouneu_mailbox.bmp,2978.0,0.0,right
munar2015common,4,until_response,2013,06,14,2.0,jahaga,20,f,chimpanzee,1.0,17.0,79.0,09:11:41,2.0,Block_2-Block_1,block2,842.0,sharneu_brushsmall.bmp,rouneu_brushsmall.bmp,342.0,0.0,right
munar2015common,4,until_response,2013,06,14,3.0,fifi,20,f,chimpanzee,1.0,17.0,76.0,09:28:00,2.0,Block_2-Block_1,block2,1474.0,sharneu_birdhouse.bmp,rouneu_birdhouse.bmp,591.0,0.0,left
munar2015common,4,until_response,2013,06,14,4.0,alex,12,m,chimpanzee,1.0,17.0,120.0,09:44:42,2.0,Block_2-Block_1,block2,694.0,rouneu_remote.bmp,rouneu_phonecordless.bmp,374.0,0.0,left
munar2015common,4,until_response,2013,08,07,5.0,lome,11,m,chimpanzee,1.0,17.0,60.0,10:22:37,1.0,Block_1-Block_2,block1,197.0,sharneu_clock.bmp,sharneu_watch.bmp,887.0,0.0,left
munar2015common,4,until_response,2013,08,07,6.0,kofi,8,m,chimpanzee,1.0,17.0,78.0,09:45:24,2.0,Block_2-Block_1,block2,7697.0,sharneu_brush.bmp,rouneu_brush.bmp,773.0,1.0,right
munar2015common,4,until_response,2013,08,07,7.0,lobo,9,m,chimpanzee,1.0,17.0,100.0,10:04:07,2.0,Block_2-Block_1,block2,2912.0,rouneu_pan.bmp,sharneu_pan.bmp,806.0,1.0,left
munar2015common,4,until_response,2013,09,11,8.0,kibara,9,f,gorilla,1.0,17.0,15.0,08:54:42,1.0,Block_1-Block_2,block1,578.0,rouneu_chineselantern.bmp,sharneu_chineselantern.bmp,768.0,1.0,right
munar2015common,4,until_response,2013,09,11,9.0,viringika,18,f,gorilla,1.0,17.0,109.0,09:12:41,2.0,Block_2-Block_1,block2,1841.0,rouneu_phone.bmp,rouneu_answering.bmp,1835.0,0.0,left
munar2015common,4,until_response,2013,06,14,1.0,gertrudia,20,f,chimpanzee,1.0,18.0,84.0,08:51:13,2.0,Block_2-Block_1,block2,384.0,sharneu_candletray.bmp,rouneu_candletray.bmp,684.0,1.0,left
munar2015common,4,until_response,2013,06,14,2.0,jahaga,20,f,chimpanzee,1.0,18.0,75.0,09:11:41,2.0,Block_2-Block_1,block2,367.0,sharneu_bench.bmp,rouneu_bench.bmp,724.0,1.0,left
munar2015common,4,until_response,2013,06,14,3.0,fifi,20,f,chimpanzee,1.0,18.0,117.0,09:28:00,2.0,Block_2-Block_1,block2,272.0,rouneu_nailpolish.bmp,rouneu_lipstick.bmp,659.0,1.0,left
munar2015common,4,until_response,2013,06,14,4.0,alex,12,m,chimpanzee,1.0,18.0,84.0,09:44:42,2.0,Block_2-Block_1,block2,733.0,sharneu_candletray.bmp,rouneu_candletray.bmp,669.0,1.0,right
munar2015common,4,until_response,2013,08,07,5.0,lome,11,m,chimpanzee,1.0,18.0,18.0,10:22:37,1.0,Block_1-Block_2,block1,448.0,rouneu_cushion.bmp,sharneu_cushion.bmp,568.0,1.0,right
munar2015common,4,until_response,2013,08,07,6.0,kofi,8,m,chimpanzee,1.0,18.0,128.0,09:45:24,2.0,Block_2-Block_1,block2,2274.0,sharneu_pizza.bmp,sharneu_ashtray.bmp,842.0,0.0,right
munar2015common,4,until_response,2013,08,07,7.0,lobo,9,m,chimpanzee,1.0,18.0,103.0,10:04:07,2.0,Block_2-Block_1,block2,2091.0,rouneu_stool.bmp,sharneu_stool.bmp,802.0,0.0,left
munar2015common,4,until_response,2013,09,11,8.0,kibara,9,f,gorilla,1.0,18.0,64.0,08:54:42,1.0,Block_1-Block_2,block1,3160.0,sharneu_mailbox.bmp,sharneu_printer.bmp,1896.0,0.0,left
munar2015common,4,until_response,2013,09,11,9.0,viringika,18,f,gorilla,1.0,18.0,115.0,09:12:41,2.0,Block_2-Block_1,block2,447.0,rouneu_vcr.bmp,rouneu_clockalarm.bmp,754.0,1.0,right
munar2015common,4,until_response,2013,06,14,1.0,gertrudia,20,f,chimpanzee,1.0,19.0,130.0,08:51:13,2.0,Block_2-Block_1,block2,1159.0,sharneu_mirror.bmp,sharneu_boxlock.bmp,1092.0,1.0,right
munar2015common,4,until_response,2013,06,14,2.0,jahaga,20,f,chimpanzee,1.0,19.0,139.0,09:11:41,2.0,Block_2-Block_1,block2,801.0,sharneu_toaster.bmp,sharneu_radioantique.bmp,454.0,0.0,left
munar2015common,4,until_response,2013,06,14,3.0,fifi,20,f,chimpanzee,1.0,19.0,121.0,09:28:00,2.0,Block_2-Block_1,block2,2450.0,rouneu_toaster.bmp,rouneu_radioantique.bmp,804.0,1.0,right
munar2015common,4,until_response,2013,06,14,4.0,alex,12,m,chimpanzee,1.0,19.0,137.0,09:44:42,2.0,Block_2-Block_1,block2,1452.0,sharneu_purse2.bmp,sharneu_padlock.bmp,365.0,0.0,left
munar2015common,4,until_response,2013,08,07,5.0,lome,11,m,chimpanzee,1.0,19.0,9.0,10:22:37,1.0,Block_1-Block_2,block1,5296.0,rouneu_bundtpan.bmp,sharneu_bundtpan.bmp,988.0,0.0,left
munar2015common,4,until_response,2013,08,07,6.0,kofi,8,m,chimpanzee,1.0,19.0,120.0,09:45:24,2.0,Block_2-Block_1,block2,1136.0,rouneu_remote.bmp,rouneu_phonecordless.bmp,777.0,0.0,right
munar2015common,4,until_response,2013,08,07,7.0,lobo,9,m,chimpanzee,1.0,19.0,120.0,10:04:07,2.0,Block_2-Block_1,block2,486.0,rouneu_remote.bmp,rouneu_phonecordless.bmp,666.0,0.0,right
munar2015common,4,until_response,2013,09,11,8.0,kibara,9,f,gorilla,1.0,19.0,60.0,08:54:42,1.0,Block_1-Block_2,block1,755.0,sharneu_clock.bmp,sharneu_watch.bmp,653.0,1.0,left
munar2015common,4,until_response,2013,09,11,9.0,viringika,18,f,gorilla,1.0,19.0,133.0,09:12:41,2.0,Block_2-Block_1,block2,3367.0,sharneu_vcr.bmp,sharneu_clockalarm.bmp,1490.0,1.0,left
munar2015common,4,until_response,2013,06,14,1.0,gertrudia,20,f,chimpanzee,1.0,20.0,96.0,08:51:13,2.0,Block_2-Block_1,block2,4883.0,rouneu_flowersandpot.bmp,sharneu_flowersandpot.bmp,905.0,0.0,left
munar2015common,4,until_response,2013,06,14,2.0,jahaga,20,f,chimpanzee,1.0,20.0,92.0,09:11:41,2.0,Block_2-Block_1,block2,289.0,rouneu_figureblock.bmp,sharneu_figureblock.bmp,609.0,1.0,right
munar2015common,4,until_response,2013,06,14,3.0,fifi,20,f,chimpanzee,1.0,20.0,133.0,09:28:00,2.0,Block_2-Block_1,block2,2077.0,sharneu_vcr.bmp,sharneu_clockalarm.bmp,564.0,0.0,left
munar2015common,4,until_response,2013,06,14,4.0,alex,12,m,chimpanzee,1.0,20.0,91.0,09:44:42,2.0,Block_2-Block_1,block2,583.0,rouneu_cuttingboard.bmp,sharneu_cuttingboard.bmp,453.0,1.0,left
munar2015common,4,until_response,2013,08,07,5.0,lome,11,m,chimpanzee,1.0,20.0,30.0,10:22:37,1.0,Block_1-Block_2,block1,679.0,sharneu_shades.bmp,rouneu_shades.bmp,936.0,1.0,right
munar2015common,4,until_response,2013,08,07,6.0,kofi,8,m,chimpanzee,1.0,20.0,107.0,09:45:24,2.0,Block_2-Block_1,block2,88.0,rouneu_vase.bmp,sharneu_vase.bmp,698.0,1.0,right
munar2015common,4,until_response,2013,08,07,7.0,lobo,9,m,chimpanzee,1.0,20.0,86.0,10:04:07,2.0,Block_2-Block_1,block2,455.0,sharneu_cheese.bmp,rouneu_cheese.bmp,758.0,1.0,left
munar2015common,4,until_response,2013,09,11,8.0,kibara,9,f,gorilla,1.0,20.0,55.0,08:54:42,1.0,Block_1-Block_2,block1,2064.0,sharneu_answering.bmp,sharneu_phone.bmp,1369.0,0.0,left
munar2015common,4,until_response,2013,09,11,9.0,viringika,18,f,gorilla,1.0,20.0,120.0,09:12:41,2.0,Block_2-Block_1,block2,2615.0,rouneu_remote.bmp,rouneu_phonecordless.bmp,871.0,0.0,left
munar2015common,4,until_response,2013,06,14,1.0,gertrudia,20,f,chimpanzee,1.0,21.0,83.0,08:51:13,2.0,Block_2-Block_1,block2,820.0,sharneu_candle.bmp,rouneu_candle.bmp,2027.0,0.0,left
munar2015common,4,until_response,2013,06,14,2.0,jahaga,20,f,chimpanzee,1.0,21.0,140.0,09:11:41,2.0,Block_2-Block_1,block2,1092.0,sharneu_speaker.bmp,sharneu_recyclebin.bmp,383.0,1.0,right
munar2015common,4,until_response,2013,06,14,3.0,fifi,20,f,chimpanzee,1.0,21.0,85.0,09:28:00,2.0,Block_2-Block_1,block2,331.0,sharneu_canister.bmp,rouneu_canister.bmp,848.0,1.0,left
munar2015common,4,until_response,2013,06,14,4.0,alex,12,m,chimpanzee,1.0,21.0,88.0,09:44:42,2.0,Block_2-Block_1,block2,1326.0,sharneu_chocolate.bmp,rouneu_chocolate.bmp,363.0,1.0,left
munar2015common,4,until_response,2013,08,07,5.0,lome,11,m,chimpanzee,1.0,21.0,17.0,10:22:37,1.0,Block_1-Block_2,block1,4697.0,rouneu_cookie.bmp,sharneu_cookie.bmp,932.0,1.0,left
munar2015common,4,until_response,2013,08,07,6.0,kofi,8,m,chimpanzee,1.0,21.0,89.0,09:45:24,2.0,Block_2-Block_1,block2,1446.0,sharneu_cookie.bmp,rouneu_cookie.bmp,836.0,1.0,right
munar2015common,4,until_response,2013,08,07,7.0,lobo,9,m,chimpanzee,1.0,21.0,73.0,10:04:07,2.0,Block_2-Block_1,block2,5702.0,sharneu_basket.bmp,rouneu_basket.bmp,688.0,1.0,left
munar2015common,4,until_response,2013,09,11,8.0,kibara,9,f,gorilla,1.0,21.0,66.0,08:54:42,1.0,Block_1-Block_2,block1,300.0,sharneu_phonecordless.bmp,sharneu_remote.bmp,600.0,1.0,right
munar2015common,4,until_response,2013,09,11,9.0,viringika,18,f,gorilla,1.0,21.0,82.0,09:12:41,2.0,Block_2-Block_1,block2,1683.0,sharneu_butterfly.bmp,rouneu_butterfly.bmp,1754.0,0.0,right
munar2015common,4,until_response,2013,06,14,1.0,gertrudia,20,f,chimpanzee,1.0,22.0,117.0,08:51:13,2.0,Block_2-Block_1,block2,55.0,rouneu_nailpolish.bmp,rouneu_lipstick.bmp,1988.0,1.0,left
munar2015common,4,until_response,2013,06,14,2.0,jahaga,20,f,chimpanzee,1.0,22.0,87.0,09:11:41,2.0,Block_2-Block_1,block2,1344.0,sharneu_chineselantern.bmp,rouneu_chineselantern.bmp,404.0,0.0,right
munar2015common,4,until_response,2013,06,14,3.0,fifi,20,f,chimpanzee,1.0,22.0,137.0,09:28:00,2.0,Block_2-Block_1,block2,1127.0,sharneu_purse2.bmp,sharneu_padlock.bmp,694.0,0.0,left
munar2015common,4,until_response,2013,06,14,4.0,alex,12,m,chimpanzee,1.0,22.0,95.0,09:44:42,2.0,Block_2-Block_1,block2,1764.0,rouneu_flowerpot.bmp,sharneu_flowerpot.bmp,668.0,0.0,right
munar2015common,4,until_response,2013,08,07,5.0,lome,11,m,chimpanzee,1.0,22.0,66.0,10:22:37,1.0,Block_1-Block_2,block1,4523.0,sharneu_phonecordless.bmp,sharneu_remote.bmp,701.0,0.0,left
munar2015common,4,until_response,2013,08,07,6.0,kofi,8,m,chimpanzee,1.0,22.0,105.0,09:45:24,2.0,Block_2-Block_1,block2,2554.0,rouneu_tent.bmp,sharneu_tent.bmp,718.0,0.0,left
munar2015common,4,until_response,2013,08,07,7.0,lobo,9,m,chimpanzee,1.0,22.0,116.0,10:04:07,2.0,Block_2-Block_1,block2,1379.0,rouneu_officechair.bmp,rouneu_couch.bmp,896.0,0.0,left
munar2015common,4,until_response,2013,09,11,8.0,kibara,9,f,gorilla,1.0,22.0,51.0,08:54:42,1.0,Block_1-Block_2,block1,3709.0,rouneu_scrubbrush.bmp,rouneu_sponge.bmp,1127.0,0.0,left
munar2015common,4,until_response,2013,09,11,9.0,viringika,18,f,gorilla,1.0,22.0,129.0,09:12:41,2.0,Block_2-Block_1,block2,1206.0,sharneu_lantern.bmp,sharneu_battery.bmp,532.0,1.0,right
munar2015common,4,until_response,2013,06,14,1.0,gertrudia,20,f,chimpanzee,1.0,23.0,79.0,08:51:13,2.0,Block_2-Block_1,block2,1323.0,sharneu_brushsmall.bmp,rouneu_brushsmall.bmp,3622.0,0.0,left
munar2015common,4,until_response,2013,06,14,2.0,jahaga,20,f,chimpanzee,1.0,23.0,77.0,09:11:41,2.0,Block_2-Block_1,block2,679.0,sharneu_briefcase.bmp,rouneu_briefcase.bmp,346.0,1.0,right
munar2015common,4,until_response,2013,06,14,3.0,fifi,20,f,chimpanzee,1.0,23.0,79.0,09:28:00,2.0,Block_2-Block_1,block2,115.0,sharneu_brushsmall.bmp,rouneu_brushsmall.bmp,719.0,0.0,right
munar2015common,4,until_response,2013,06,14,4.0,alex,12,m,chimpanzee,1.0,23.0,111.0,09:44:42,2.0,Block_2-Block_1,block2,476.0,rouneu_lantern.bmp,rouneu_battery.bmp,564.0,0.0,right
munar2015common,4,until_response,2013,08,07,5.0,lome,11,m,chimpanzee,1.0,23.0,41.0,10:22:37,1.0,Block_1-Block_2,block1,556.0,rouneu_calculator.bmp,rouneu_pda.bmp,880.0,1.0,left
munar2015common,4,until_response,2013,08,07,6.0,kofi,8,m,chimpanzee,1.0,23.0,114.0,09:45:24,2.0,Block_2-Block_1,block2,470.0,rouneu_watch.bmp,rouneu_clock.bmp,776.0,1.0,left
munar2015common,4,until_response,2013,08,07,7.0,lobo,9,m,chimpanzee,1.0,23.0,80.0,10:04:07,2.0,Block_2-Block_1,block2,434.0,sharneu_bucket.bmp,rouneu_bucket.bmp,784.0,0.0,right
munar2015common,4,until_response,2013,09,11,8.0,kibara,9,f,gorilla,1.0,23.0,41.0,08:54:42,1.0,Block_1-Block_2,block1,441.0,rouneu_calculator.bmp,rouneu_pda.bmp,1537.0,0.0,left
munar2015common,4,until_response,2013,09,11,9.0,viringika,18,f,gorilla,1.0,23.0,98.0,09:12:41,2.0,Block_2-Block_1,block2,3709.0,rouneu_leaf.bmp,sharneu_leaf.bmp,364.0,1.0,left
munar2015common,4,until_response,2013,06,14,1.0,gertrudia,20,f,chimpanzee,1.0,24.0,86.0,08:51:13,2.0,Block_2-Block_1,block2,653.0,sharneu_cheese.bmp,rouneu_cheese.bmp,3516.0,1.0,left
munar2015common,4,until_response,2013,06,14,2.0,jahaga,20,f,chimpanzee,1.0,24.0,97.0,09:11:41,2.0,Block_2-Block_1,block2,938.0,rouneu_gem.bmp,sharneu_gem.bmp,359.0,0.0,right
munar2015common,4,until_response,2013,06,14,3.0,fifi,20,f,chimpanzee,1.0,24.0,80.0,09:28:00,2.0,Block_2-Block_1,block2,906.0,sharneu_bucket.bmp,rouneu_bucket.bmp,640.0,1.0,left
munar2015common,4,until_response,2013,06,14,4.0,alex,12,m,chimpanzee,1.0,24.0,116.0,09:44:42,2.0,Block_2-Block_1,block2,231.0,rouneu_officechair.bmp,rouneu_couch.bmp,357.0,1.0,left
munar2015common,4,until_response,2013,08,07,5.0,lome,11,m,chimpanzee,1.0,24.0,35.0,10:22:37,1.0,Block_1-Block_2,block1,4221.0,sharneu_vase.bmp,rouneu_vase.bmp,699.0,0.0,left
munar2015common,4,until_response,2013,08,07,6.0,kofi,8,m,chimpanzee,1.0,24.0,97.0,09:45:24,2.0,Block_2-Block_1,block2,1381.0,rouneu_gem.bmp,sharneu_gem.bmp,778.0,0.0,left
munar2015common,4,until_response,2013,08,07,7.0,lobo,9,m,chimpanzee,1.0,24.0,126.0,10:04:07,2.0,Block_2-Block_1,block2,605.0,rouneu_camera.bmp,rouneu_television.bmp,709.0,1.0,right
munar2015common,4,until_response,2013,09,11,8.0,kibara,9,f,gorilla,1.0,24.0,44.0,08:54:42,1.0,Block_1-Block_2,block1,681.0,rouneu_couch.bmp,rouneu_officechair.bmp,651.0,1.0,right
munar2015common,4,until_response,2013,09,11,9.0,viringika,18,f,gorilla,1.0,24.0,73.0,09:12:41,2.0,Block_2-Block_1,block2,1580.0,sharneu_basket.bmp,rouneu_basket.bmp,711.0,0.0,left
munar2015common,4,until_response,2013,06,14,1.0,gertrudia,20,f,chimpanzee,1.0,25.0,104.0,08:51:13,2.0,Block_2-Block_1,block2,1426.0,rouneu_table.bmp,sharneu_table.bmp,43124.0,0.0,right
munar2015common,4,until_response,2013,06,14,2.0,jahaga,20,f,chimpanzee,1.0,25.0,105.0,09:11:41,2.0,Block_2-Block_1,block2,1573.0,rouneu_tent.bmp,sharneu_tent.bmp,690.0,1.0,left
munar2015common,4,until_response,2013,06,14,3.0,fifi,20,f,chimpanzee,1.0,25.0,74.0,09:28:00,2.0,Block_2-Block_1,block2,888.0,sharneu_basket2.bmp,rouneu_basket2.bmp,539.0,1.0,left
munar2015common,4,until_response,2013,06,14,4.0,alex,12,m,chimpanzee,1.0,25.0,134.0,09:44:42,2.0,Block_2-Block_1,block2,1827.0,sharneu_officechair.bmp,sharneu_couch.bmp,355.0,0.0,left
munar2015common,4,until_response,2013,08,07,5.0,lome,11,m,chimpanzee,1.0,25.0,69.0,10:22:37,1.0,Block_1-Block_2,block1,564.0,sharneu_scrubbrush.bmp,sharneu_sponge.bmp,827.0,1.0,left
munar2015common,4,until_response,2013,08,07,6.0,kofi,8,m,chimpanzee,1.0,25.0,74.0,09:45:24,2.0,Block_2-Block_1,block2,423.0,sharneu_basket2.bmp,rouneu_basket2.bmp,720.0,1.0,left
munar2015common,4,until_response,2013,08,07,7.0,lobo,9,m,chimpanzee,1.0,25.0,141.0,10:04:07,2.0,Block_2-Block_1,block2,5360.0,sharneu_sponge.bmp,sharneu_scrubbrush.bmp,705.0,1.0,right
munar2015common,4,until_response,2013,09,11,8.0,kibara,9,f,gorilla,1.0,25.0,18.0,08:54:42,1.0,Block_1-Block_2,block1,3391.0,rouneu_cushion.bmp,sharneu_cushion.bmp,1032.0,0.0,left
munar2015common,4,until_response,2013,09,11,9.0,viringika,18,f,gorilla,1.0,25.0,119.0,09:12:41,2.0,Block_2-Block_1,block2,690.0,rouneu_purse2.bmp,rouneu_padlock.bmp,708.0,1.0,left
munar2015common,4,until_response,2013,06,14,1.0,gertrudia,20,f,chimpanzee,1.0,26.0,95.0,08:51:13,2.0,Block_2-Block_1,block2,1033.0,rouneu_flowerpot.bmp,sharneu_flowerpot.bmp,1263.0,1.0,left
munar2015common,4,until_response,2013,06,14,2.0,jahaga,20,f,chimpanzee,1.0,26.0,83.0,09:11:41,2.0,Block_2-Block_1,block2,801.0,sharneu_candle.bmp,rouneu_candle.bmp,485.0,0.0,left
munar2015common,4,until_response,2013,06,14,3.0,fifi,20,f,chimpanzee,1.0,26.0,77.0,09:28:00,2.0,Block_2-Block_1,block2,1179.0,sharneu_briefcase.bmp,rouneu_briefcase.bmp,466.0,0.0,left
munar2015common,4,until_response,2013,06,14,4.0,alex,12,m,chimpanzee,1.0,26.0,130.0,09:44:42,2.0,Block_2-Block_1,block2,528.0,sharneu_mirror.bmp,sharneu_boxlock.bmp,2956.0,1.0,right
munar2015common,4,until_response,2013,08,07,5.0,lome,11,m,chimpanzee,1.0,26.0,6.0,10:22:37,1.0,Block_1-Block_2,block1,3618.0,rouneu_brush.bmp,sharneu_brush.bmp,1666.0,0.0,left
munar2015common,4,until_response,2013,08,07,6.0,kofi,8,m,chimpanzee,1.0,26.0,110.0,09:45:24,2.0,Block_2-Block_1,block2,1461.0,rouneu_pizza.bmp,rouneu_ashtray.bmp,2935.0,0.0,left
munar2015common,4,until_response,2013,08,07,7.0,lobo,9,m,chimpanzee,1.0,26.0,106.0,10:04:07,2.0,Block_2-Block_1,block2,1960.0,rouneu_tree.bmp,sharneu_tree.bmp,844.0,0.0,right
munar2015common,4,until_response,2013,09,11,8.0,kibara,9,f,gorilla,1.0,26.0,4.0,08:54:42,1.0,Block_1-Block_2,block1,589.0,rouneu_birdhouse.bmp,sharneu_birdhouse.bmp,968.0,1.0,right
munar2015common,4,until_response,2013,09,11,9.0,viringika,18,f,gorilla,1.0,26.0,90.0,09:12:41,2.0,Block_2-Block_1,block2,2956.0,sharneu_cushion.bmp,rouneu_cushion.bmp,366.0,0.0,right
munar2015common,4,until_response,2013,06,14,1.0,gertrudia,20,f,chimpanzee,1.0,27.0,112.0,08:51:13,2.0,Block_2-Block_1,block2,5925.0,rouneu_mirror.bmp,rouneu_boxlock.bmp,802.0,0.0,right
munar2015common,4,until_response,2013,06,14,2.0,jahaga,20,f,chimpanzee,1.0,27.0,109.0,09:11:41,2.0,Block_2-Block_1,block2,396.0,rouneu_phone.bmp,rouneu_answering.bmp,396.0,0.0,right
munar2015common,4,until_response,2013,06,14,3.0,fifi,20,f,chimpanzee,1.0,27.0,118.0,09:28:00,2.0,Block_2-Block_1,block2,384.0,rouneu_printer.bmp,rouneu_mailbox.bmp,545.0,1.0,left
munar2015common,4,until_response,2013,06,14,4.0,alex,12,m,chimpanzee,1.0,27.0,101.0,09:44:42,2.0,Block_2-Block_1,block2,3074.0,rouneu_pictureframe.bmp,sharneu_pictureframe.bmp,752.0,0.0,left
munar2015common,4,until_response,2013,08,07,5.0,lome,11,m,chimpanzee,1.0,27.0,47.0,10:22:37,1.0,Block_1-Block_2,block1,174.0,rouneu_padlock.bmp,rouneu_purse2.bmp,782.0,0.0,left
munar2015common,4,until_response,2013,08,07,6.0,kofi,8,m,chimpanzee,1.0,27.0,113.0,09:45:24,2.0,Block_2-Block_1,block2,1160.0,rouneu_pda.bmp,rouneu_calculator.bmp,724.0,0.0,left
munar2015common,4,until_response,2013,08,07,7.0,lobo,9,m,chimpanzee,1.0,27.0,91.0,10:04:07,2.0,Block_2-Block_1,block2,718.0,rouneu_cuttingboard.bmp,sharneu_cuttingboard.bmp,775.0,1.0,right
munar2015common,4,until_response,2013,09,11,8.0,kibara,9,f,gorilla,1.0,27.0,38.0,08:54:42,1.0,Block_1-Block_2,block1,2922.0,rouneu_ashtray.bmp,rouneu_pizza.bmp,912.0,1.0,left
munar2015common,4,until_response,2013,09,11,9.0,viringika,18,f,gorilla,1.0,27.0,106.0,09:12:41,2.0,Block_2-Block_1,block2,9.0,rouneu_tree.bmp,sharneu_tree.bmp,2300.0,1.0,left
munar2015common,4,until_response,2013,06,14,1.0,gertrudia,20,f,chimpanzee,1.0,28.0,132.0,08:51:13,2.0,Block_2-Block_1,block2,852.0,sharneu_watch.bmp,sharneu_clock.bmp,1186.0,1.0,left
munar2015common,4,until_response,2013,06,14,2.0,jahaga,20,f,chimpanzee,1.0,28.0,82.0,09:11:41,2.0,Block_2-Block_1,block2,251.0,sharneu_butterfly.bmp,rouneu_butterfly.bmp,404.0,1.0,right
munar2015common,4,until_response,2013,06,14,3.0,fifi,20,f,chimpanzee,1.0,28.0,141.0,09:28:00,2.0,Block_2-Block_1,block2,970.0,sharneu_sponge.bmp,sharneu_scrubbrush.bmp,867.0,0.0,right
munar2015common,4,until_response,2013,06,14,4.0,alex,12,m,chimpanzee,1.0,28.0,117.0,09:44:42,2.0,Block_2-Block_1,block2,906.0,rouneu_nailpolish.bmp,rouneu_lipstick.bmp,460.0,1.0,left
munar2015common,4,until_response,2013,08,07,5.0,lome,11,m,chimpanzee,1.0,28.0,70.0,10:22:37,1.0,Block_1-Block_2,block1,492.0,sharneu_spatula.bmp,sharneu_shovel.bmp,792.0,1.0,left
munar2015common,4,until_response,2013,08,07,6.0,kofi,8,m,chimpanzee,1.0,28.0,87.0,09:45:24,2.0,Block_2-Block_1,block2,398.0,sharneu_chineselantern.bmp,rouneu_chineselantern.bmp,628.0,1.0,left
munar2015common,4,until_response,2013,08,07,7.0,lobo,9,m,chimpanzee,1.0,28.0,113.0,10:04:07,2.0,Block_2-Block_1,block2,1793.0,rouneu_pda.bmp,rouneu_calculator.bmp,1055.0,0.0,right
munar2015common,4,until_response,2013,09,11,8.0,kibara,9,f,gorilla,1.0,28.0,56.0,08:54:42,1.0,Block_1-Block_2,block1,1213.0,sharneu_ashtray.bmp,sharneu_pizza.bmp,1243.0,0.0,left
munar2015common,4,until_response,2013,09,11,9.0,viringika,18,f,gorilla,1.0,28.0,127.0,09:12:41,2.0,Block_2-Block_1,block2,2988.0,sharneu_phone.bmp,sharneu_answering.bmp,902.0,0.0,left
munar2015common,4,until_response,2013,06,14,1.0,gertrudia,20,f,chimpanzee,1.0,29.0,81.0,08:51:13,2.0,Block_2-Block_1,block2,1039.0,sharneu_bundtpan.bmp,rouneu_bundtpan.bmp,2499.0,1.0,left
munar2015common,4,until_response,2013,06,14,2.0,jahaga,20,f,chimpanzee,1.0,29.0,85.0,09:11:41,2.0,Block_2-Block_1,block2,863.0,sharneu_canister.bmp,rouneu_canister.bmp,726.0,1.0,right
munar2015common,4,until_response,2013,06,14,3.0,fifi,20,f,chimpanzee,1.0,29.0,106.0,09:28:00,2.0,Block_2-Block_1,block2,465.0,rouneu_tree.bmp,sharneu_tree.bmp,558.0,0.0,left
munar2015common,4,until_response,2013,06,14,4.0,alex,12,m,chimpanzee,1.0,29.0,112.0,09:44:42,2.0,Block_2-Block_1,block2,1979.0,rouneu_mirror.bmp,rouneu_boxlock.bmp,337.0,0.0,left
munar2015common,4,until_response,2013,08,07,5.0,lome,11,m,chimpanzee,1.0,29.0,22.0,10:22:37,1.0,Block_1-Block_2,block1,5707.0,sharneu_flower.bmp,rouneu_flower.bmp,502.0,0.0,right
munar2015common,4,until_response,2013,08,07,6.0,kofi,8,m,chimpanzee,1.0,29.0,125.0,09:45:24,2.0,Block_2-Block_1,block2,943.0,rouneu_teakettle.bmp,rouneu_teapot.bmp,733.0,1.0,left
munar2015common,4,until_response,2013,08,07,7.0,lobo,9,m,chimpanzee,1.0,29.0,133.0,10:04:07,2.0,Block_2-Block_1,block2,18.0,sharneu_vcr.bmp,sharneu_clockalarm.bmp,646.0,0.0,right
munar2015common,4,until_response,2013,09,11,8.0,kibara,9,f,gorilla,1.0,29.0,71.0,08:54:42,1.0,Block_1-Block_2,block1,899.0,sharneu_teapot.bmp,sharneu_teakettle.bmp,704.0,0.0,right
munar2015common,4,until_response,2013,09,11,9.0,viringika,18,f,gorilla,1.0,29.0,99.0,09:12:41,2.0,Block_2-Block_1,block2,1143.0,rouneu_mirrorbig.bmp,sharneu_mirrorbig.bmp,644.0,0.0,left
munar2015common,4,until_response,2013,06,14,1.0,gertrudia,20,f,chimpanzee,1.0,30.0,76.0,08:51:13,2.0,Block_2-Block_1,block2,637.0,sharneu_birdhouse.bmp,rouneu_birdhouse.bmp,877.0,0.0,left
munar2015common,4,until_response,2013,06,14,2.0,jahaga,20,f,chimpanzee,1.0,30.0,84.0,09:11:41,2.0,Block_2-Block_1,block2,2385.0,sharneu_candletray.bmp,rouneu_candletray.bmp,336.0,0.0,right
munar2015common,4,until_response,2013,06,14,3.0,fifi,20,f,chimpanzee,1.0,30.0,82.0,09:28:00,2.0,Block_2-Block_1,block2,443.0,sharneu_butterfly.bmp,rouneu_butterfly.bmp,573.0,1.0,left
munar2015common,4,until_response,2013,06,14,4.0,alex,12,m,chimpanzee,1.0,30.0,122.0,09:44:42,2.0,Block_2-Block_1,block2,238.0,rouneu_speaker.bmp,rouneu_recycle.bmp,428.0,1.0,left
munar2015common,4,until_response,2013,08,07,5.0,lome,11,m,chimpanzee,1.0,30.0,1.0,10:22:37,1.0,Block_1-Block_2,block1,508.0,rouneu_basket.bmp,sharneu_basket.bmp,740.0,1.0,left
munar2015common,4,until_response,2013,08,07,6.0,kofi,8,m,chimpanzee,1.0,30.0,99.0,09:45:24,2.0,Block_2-Block_1,block2,1469.0,rouneu_mirrorbig.bmp,sharneu_mirrorbig.bmp,1815.0,0.0,right
munar2015common,4,until_response,2013,08,07,7.0,lobo,9,m,chimpanzee,1.0,30.0,76.0,10:04:07,2.0,Block_2-Block_1,block2,491.0,sharneu_birdhouse.bmp,rouneu_birdhouse.bmp,670.0,1.0,right
munar2015common,4,until_response,2013,09,11,8.0,kibara,9,f,gorilla,1.0,30.0,36.0,08:54:42,1.0,Block_1-Block_2,block1,1015.0,sharneu_windchime.bmp,rouneu_windchime.bmp,3509.0,1.0,left
munar2015common,4,until_response,2013,09,11,9.0,viringika,18,f,gorilla,1.0,30.0,137.0,09:12:41,2.0,Block_2-Block_1,block2,561.0,sharneu_purse2.bmp,sharneu_padlock.bmp,848.0,1.0,right
munar2015common,4,until_response,2013,06,14,1.0,gertrudia,20,f,chimpanzee,1.0,31.0,108.0,08:51:13,2.0,Block_2-Block_1,block2,108.0,rouneu_windchime.bmp,sharneu_windchime.bmp,941.0,1.0,left
munar2015common,4,until_response,2013,06,14,2.0,jahaga,20,f,chimpanzee,1.0,31.0,143.0,09:11:41,2.0,Block_2-Block_1,block2,467.0,sharneu_teakettle.bmp,sharneu_teapot.bmp,414.0,1.0,right
munar2015common,4,until_response,2013,06,14,3.0,fifi,20,f,chimpanzee,1.0,31.0,104.0,09:28:00,2.0,Block_2-Block_1,block2,1323.0,rouneu_table.bmp,sharneu_table.bmp,1320.0,1.0,right
munar2015common,4,until_response,2013,06,14,4.0,alex,12,m,chimpanzee,1.0,31.0,98.0,09:44:42,2.0,Block_2-Block_1,block2,1617.0,rouneu_leaf.bmp,sharneu_leaf.bmp,694.0,1.0,right
munar2015common,4,until_response,2013,08,07,5.0,lome,11,m,chimpanzee,1.0,31.0,53.0,10:22:37,1.0,Block_1-Block_2,block1,3261.0,rouneu_teapot.bmp,rouneu_teakettle.bmp,1066.0,1.0,left
munar2015common,4,until_response,2013,08,07,6.0,kofi,8,m,chimpanzee,1.0,31.0,123.0,09:45:24,2.0,Block_2-Block_1,block2,436.0,rouneu_sponge.bmp,rouneu_scrubbrush.bmp,657.0,1.0,right
munar2015common,4,until_response,2013,08,07,7.0,lobo,9,m,chimpanzee,1.0,31.0,92.0,10:04:07,2.0,Block_2-Block_1,block2,3419.0,rouneu_figureblock.bmp,sharneu_figureblock.bmp,646.0,0.0,right
munar2015common,4,until_response,2013,09,11,8.0,kibara,9,f,gorilla,1.0,31.0,13.0,08:54:42,1.0,Block_1-Block_2,block1,734.0,rouneu_canister.bmp,sharneu_canister.bmp,1861.0,1.0,left
munar2015common,4,until_response,2013,09,11,9.0,viringika,18,f,gorilla,1.0,31.0,142.0,09:12:41,2.0,Block_2-Block_1,block2,4632.0,sharneu_shovel.bmp,sharneu_spatula.bmp,690.0,1.0,left
munar2015common,4,until_response,2013,06,14,1.0,gertrudia,20,f,chimpanzee,1.0,32.0,89.0,08:51:13,2.0,Block_2-Block_1,block2,2314.0,sharneu_cookie.bmp,rouneu_cookie.bmp,1598.0,0.0,right
munar2015common,4,until_response,2013,06,14,2.0,jahaga,20,f,chimpanzee,1.0,32.0,74.0,09:11:41,2.0,Block_2-Block_1,block2,834.0,sharneu_basket2.bmp,rouneu_basket2.bmp,384.0,0.0,right
munar2015common,4,until_response,2013,06,14,3.0,fifi,20,f,chimpanzee,1.0,32.0,129.0,09:28:00,2.0,Block_2-Block_1,block2,1196.0,sharneu_lantern.bmp,sharneu_battery.bmp,717.0,0.0,left
munar2015common,4,until_response,2013,06,14,4.0,alex,12,m,chimpanzee,1.0,32.0,124.0,09:44:42,2.0,Block_2-Block_1,block2,2458.0,rouneu_shovel.bmp,rouneu_spatula.bmp,542.0,0.0,left
munar2015common,4,until_response,2013,08,07,5.0,lome,11,m,chimpanzee,1.0,32.0,21.0,10:22:37,1.0,Block_1-Block_2,block1,6065.0,sharneu_figuretriangle.bmp,rouneu_figuretriangle.bmp,1114.0,0.0,left
munar2015common,4,until_response,2013,08,07,6.0,kofi,8,m,chimpanzee,1.0,32.0,102.0,09:45:24,2.0,Block_2-Block_1,block2,2308.0,rouneu_shades.bmp,sharneu_shades.bmp,742.0,0.0,right
munar2015common,4,until_response,2013,08,07,7.0,lobo,9,m,chimpanzee,1.0,32.0,82.0,10:04:07,2.0,Block_2-Block_1,block2,484.0,sharneu_butterfly.bmp,rouneu_butterfly.bmp,1044.0,1.0,left
munar2015common,4,until_response,2013,09,11,8.0,kibara,9,f,gorilla,1.0,32.0,24.0,08:54:42,1.0,Block_1-Block_2,block1,2336.0,sharneu_flowersandpot.bmp,rouneu_flowersandpot.bmp,2915.0,0.0,right
munar2015common,4,until_response,2013,09,11,9.0,viringika,18,f,gorilla,1.0,32.0,136.0,09:12:41,2.0,Block_2-Block_1,block2,3935.0,sharneu_printer.bmp,sharneu_mailbox.bmp,648.0,0.0,left
munar2015common,4,until_response,2013,06,14,1.0,gertrudia,20,f,chimpanzee,1.0,33.0,100.0,08:51:13,2.0,Block_2-Block_1,block2,183.0,rouneu_pan.bmp,sharneu_pan.bmp,993.0,1.0,left
munar2015common,4,until_response,2013,06,14,2.0,jahaga,20,f,chimpanzee,1.0,33.0,120.0,09:11:41,2.0,Block_2-Block_1,block2,309.0,rouneu_remote.bmp,rouneu_phonecordless.bmp,411.0,1.0,right
munar2015common,4,until_response,2013,06,14,3.0,fifi,20,f,chimpanzee,1.0,33.0,113.0,09:28:00,2.0,Block_2-Block_1,block2,306.0,rouneu_pda.bmp,rouneu_calculator.bmp,668.0,0.0,right
munar2015common,4,until_response,2013,06,14,4.0,alex,12,m,chimpanzee,1.0,33.0,103.0,09:44:42,2.0,Block_2-Block_1,block2,344.0,rouneu_stool.bmp,sharneu_stool.bmp,424.0,1.0,left
munar2015common,4,until_response,2013,08,07,5.0,lome,11,m,chimpanzee,1.0,33.0,10.0,10:22:37,1.0,Block_1-Block_2,block1,471.0,rouneu_butterfly.bmp,sharneu_butterfly.bmp,838.0,0.0,left
munar2015common,4,until_response,2013,08,07,6.0,kofi,8,m,chimpanzee,1.0,33.0,76.0,09:45:24,2.0,Block_2-Block_1,block2,40.0,sharneu_birdhouse.bmp,rouneu_birdhouse.bmp,800.0,0.0,right
munar2015common,4,until_response,2013,08,07,7.0,lobo,9,m,chimpanzee,1.0,33.0,132.0,10:04:07,2.0,Block_2-Block_1,block2,2168.0,sharneu_watch.bmp,sharneu_clock.bmp,676.0,0.0,left
munar2015common,4,until_response,2013,09,11,8.0,kibara,9,f,gorilla,1.0,33.0,19.0,08:54:42,1.0,Block_1-Block_2,block1,974.0,sharneu_cuttingboard.bmp,rouneu_cuttingboard.bmp,665.0,1.0,left
munar2015common,4,until_response,2013,09,11,9.0,viringika,18,f,gorilla,1.0,33.0,144.0,09:12:41,2.0,Block_2-Block_1,block2,1417.0,sharneu_camera.bmp,sharneu_television.bmp,647.0,1.0,left
munar2015common,4,until_response,2013,06,14,1.0,gertrudia,20,f,chimpanzee,1.0,34.0,139.0,08:51:13,2.0,Block_2-Block_1,block2,842.0,sharneu_toaster.bmp,sharneu_radioantique.bmp,896.0,0.0,left
munar2015common,4,until_response,2013,06,14,2.0,jahaga,20,f,chimpanzee,1.0,34.0,132.0,09:11:41,2.0,Block_2-Block_1,block2,1211.0,sharneu_watch.bmp,sharneu_clock.bmp,424.0,0.0,left
munar2015common,4,until_response,2013,06,14,3.0,fifi,20,f,chimpanzee,1.0,34.0,124.0,09:28:00,2.0,Block_2-Block_1,block2,556.0,rouneu_shovel.bmp,rouneu_spatula.bmp,679.0,1.0,left
munar2015common,4,until_response,2013,06,14,4.0,alex,12,m,chimpanzee,1.0,34.0,76.0,09:44:42,2.0,Block_2-Block_1,block2,1345.0,sharneu_birdhouse.bmp,rouneu_birdhouse.bmp,385.0,0.0,left
munar2015common,4,until_response,2013,08,07,5.0,lome,11,m,chimpanzee,1.0,34.0,25.0,10:22:37,1.0,Block_1-Block_2,block1,86.0,sharneu_gem.bmp,rouneu_gem.bmp,795.0,1.0,left
munar2015common,4,until_response,2013,08,07,6.0,kofi,8,m,chimpanzee,1.0,34.0,96.0,09:45:24,2.0,Block_2-Block_1,block2,1479.0,rouneu_flowersandpot.bmp,sharneu_flowersandpot.bmp,775.0,1.0,left
munar2015common,4,until_response,2013,08,07,7.0,lobo,9,m,chimpanzee,1.0,34.0,118.0,10:04:07,2.0,Block_2-Block_1,block2,433.0,rouneu_printer.bmp,rouneu_mailbox.bmp,824.0,1.0,left
munar2015common,4,until_response,2013,09,11,8.0,kibara,9,f,gorilla,1.0,34.0,48.0,08:54:42,1.0,Block_1-Block_2,block1,3988.0,rouneu_phonecordless.bmp,rouneu_remote.bmp,1437.0,0.0,right
munar2015common,4,until_response,2013,09,11,9.0,viringika,18,f,gorilla,1.0,34.0,107.0,09:12:41,2.0,Block_2-Block_1,block2,3510.0,rouneu_vase.bmp,sharneu_vase.bmp,329.0,0.0,left
munar2015common,4,until_response,2013,06,14,1.0,gertrudia,20,f,chimpanzee,1.0,35.0,107.0,08:51:13,2.0,Block_2-Block_1,block2,224.0,rouneu_vase.bmp,sharneu_vase.bmp,741.0,0.0,right
munar2015common,4,until_response,2013,06,14,2.0,jahaga,20,f,chimpanzee,1.0,35.0,131.0,09:11:41,2.0,Block_2-Block_1,block2,9902.0,sharneu_pda.bmp,sharneu_calculator.bmp,689.0,1.0,left
munar2015common,4,until_response,2013,06,14,3.0,fifi,20,f,chimpanzee,1.0,35.0,100.0,09:28:00,2.0,Block_2-Block_1,block2,988.0,rouneu_pan.bmp,sharneu_pan.bmp,778.0,1.0,left
munar2015common,4,until_response,2013,06,14,4.0,alex,12,m,chimpanzee,1.0,35.0,110.0,09:44:42,2.0,Block_2-Block_1,block2,4966.0,rouneu_pizza.bmp,rouneu_ashtray.bmp,715.0,1.0,left
munar2015common,4,until_response,2013,08,07,5.0,lome,11,m,chimpanzee,1.0,35.0,5.0,10:22:37,1.0,Block_1-Block_2,block1,5671.0,rouneu_briefcase.bmp,sharneu_briefcase.bmp,1669.0,1.0,right
munar2015common,4,until_response,2013,08,07,6.0,kofi,8,m,chimpanzee,1.0,35.0,116.0,09:45:24,2.0,Block_2-Block_1,block2,1195.0,rouneu_officechair.bmp,rouneu_couch.bmp,746.0,1.0,right
munar2015common,4,until_response,2013,08,07,7.0,lobo,9,m,chimpanzee,1.0,35.0,107.0,10:04:07,2.0,Block_2-Block_1,block2,7951.0,rouneu_vase.bmp,sharneu_vase.bmp,657.0,1.0,left
munar2015common,4,until_response,2013,09,11,8.0,kibara,9,f,gorilla,1.0,35.0,42.0,08:54:42,1.0,Block_1-Block_2,block1,481.0,rouneu_clock.bmp,rouneu_watch.bmp,708.0,1.0,left
munar2015common,4,until_response,2013,09,11,9.0,viringika,18,f,gorilla,1.0,35.0,143.0,09:12:41,2.0,Block_2-Block_1,block2,1691.0,sharneu_teakettle.bmp,sharneu_teapot.bmp,751.0,1.0,left
munar2015common,4,until_response,2013,06,14,1.0,gertrudia,20,f,chimpanzee,1.0,36.0,141.0,08:51:13,2.0,Block_2-Block_1,block2,110.0,sharneu_sponge.bmp,sharneu_scrubbrush.bmp,804.0,1.0,left
munar2015common,4,until_response,2013,06,14,2.0,jahaga,20,f,chimpanzee,1.0,36.0,136.0,09:11:41,2.0,Block_2-Block_1,block2,966.0,sharneu_printer.bmp,sharneu_mailbox.bmp,392.0,0.0,right
munar2015common,4,until_response,2013,06,14,3.0,fifi,20,f,chimpanzee,1.0,36.0,132.0,09:28:00,2.0,Block_2-Block_1,block2,1290.0,sharneu_watch.bmp,sharneu_clock.bmp,790.0,0.0,left
munar2015common,4,until_response,2013,06,14,4.0,alex,12,m,chimpanzee,1.0,36.0,78.0,09:44:42,2.0,Block_2-Block_1,block2,1263.0,sharneu_brush.bmp,rouneu_brush.bmp,1917.0,0.0,left
munar2015common,4,until_response,2013,08,07,5.0,lome,11,m,chimpanzee,1.0,36.0,52.0,10:22:37,1.0,Block_1-Block_2,block1,4827.0,rouneu_spatula.bmp,rouneu_shovel.bmp,1385.0,0.0,left
munar2015common,4,until_response,2013,08,07,6.0,kofi,8,m,chimpanzee,1.0,36.0,75.0,09:45:24,2.0,Block_2-Block_1,block2,3344.0,sharneu_bench.bmp,rouneu_bench.bmp,756.0,0.0,right
munar2015common,4,until_response,2013,08,07,7.0,lobo,9,m,chimpanzee,1.0,36.0,89.0,10:04:07,2.0,Block_2-Block_1,block2,8225.0,sharneu_cookie.bmp,rouneu_cookie.bmp,1215.0,0.0,right
munar2015common,4,until_response,2013,09,11,8.0,kibara,9,f,gorilla,1.0,36.0,57.0,08:54:42,1.0,Block_1-Block_2,block1,2738.0,sharneu_battery.bmp,sharneu_lantern.bmp,782.0,0.0,left
munar2015common,4,until_response,2013,09,11,9.0,viringika,18,f,gorilla,1.0,36.0,141.0,09:12:41,2.0,Block_2-Block_1,block2,2259.0,sharneu_sponge.bmp,sharneu_scrubbrush.bmp,383.0,0.0,right
munar2015common,4,until_response,2013,06,14,1.0,gertrudia,20,f,chimpanzee,1.0,37.0,90.0,08:51:13,2.0,Block_2-Block_1,block2,916.0,sharneu_cushion.bmp,rouneu_cushion.bmp,4789.0,0.0,right
munar2015common,4,until_response,2013,06,14,2.0,jahaga,20,f,chimpanzee,1.0,37.0,116.0,09:11:41,2.0,Block_2-Block_1,block2,225.0,rouneu_officechair.bmp,rouneu_couch.bmp,380.0,0.0,right
munar2015common,4,until_response,2013,06,14,3.0,fifi,20,f,chimpanzee,1.0,37.0,91.0,09:28:00,2.0,Block_2-Block_1,block2,33.0,rouneu_cuttingboard.bmp,sharneu_cuttingboard.bmp,638.0,0.0,right
munar2015common,4,until_response,2013,06,14,4.0,alex,12,m,chimpanzee,1.0,37.0,128.0,09:44:42,2.0,Block_2-Block_1,block2,385.0,sharneu_pizza.bmp,sharneu_ashtray.bmp,436.0,1.0,left
munar2015common,4,until_response,2013,08,07,5.0,lome,11,m,chimpanzee,1.0,37.0,33.0,10:22:37,1.0,Block_1-Block_2,block1,296.0,sharneu_tent.bmp,rouneu_tent.bmp,1766.0,1.0,left
munar2015common,4,until_response,2013,08,07,6.0,kofi,8,m,chimpanzee,1.0,37.0,80.0,09:45:24,2.0,Block_2-Block_1,block2,614.0,sharneu_bucket.bmp,rouneu_bucket.bmp,687.0,0.0,left
munar2015common,4,until_response,2013,08,07,7.0,lobo,9,m,chimpanzee,1.0,37.0,123.0,10:04:07,2.0,Block_2-Block_1,block2,153.0,rouneu_sponge.bmp,rouneu_scrubbrush.bmp,886.0,1.0,right
munar2015common,4,until_response,2013,09,11,8.0,kibara,9,f,gorilla,1.0,37.0,67.0,08:54:42,1.0,Block_1-Block_2,block1,385.0,sharneu_radioantique.bmp,sharneu_toaster.bmp,862.0,0.0,left
munar2015common,4,until_response,2013,09,11,9.0,viringika,18,f,gorilla,1.0,37.0,117.0,09:12:41,2.0,Block_2-Block_1,block2,1187.0,rouneu_nailpolish.bmp,rouneu_lipstick.bmp,367.0,1.0,left
munar2015common,4,until_response,2013,06,14,1.0,gertrudia,20,f,chimpanzee,1.0,38.0,138.0,08:51:13,2.0,Block_2-Block_1,block2,395.0,sharneu_remote.bmp,sharneu_phonecordless.bmp,885.0,1.0,left
munar2015common,4,until_response,2013,06,14,2.0,jahaga,20,f,chimpanzee,1.0,38.0,130.0,09:11:41,2.0,Block_2-Block_1,block2,335.0,sharneu_mirror.bmp,sharneu_boxlock.bmp,645.0,1.0,right
munar2015common,4,until_response,2013,06,14,3.0,fifi,20,f,chimpanzee,1.0,38.0,83.0,09:28:00,2.0,Block_2-Block_1,block2,190.0,sharneu_candle.bmp,rouneu_candle.bmp,680.0,1.0,left
munar2015common,4,until_response,2013,06,14,4.0,alex,12,m,chimpanzee,1.0,38.0,97.0,09:44:42,2.0,Block_2-Block_1,block2,1354.0,rouneu_gem.bmp,sharneu_gem.bmp,348.0,0.0,left
munar2015common,4,until_response,2013,08,07,5.0,lome,11,m,chimpanzee,1.0,38.0,38.0,10:22:37,1.0,Block_1-Block_2,block1,4675.0,rouneu_ashtray.bmp,rouneu_pizza.bmp,603.0,0.0,left
munar2015common,4,until_response,2013,08,07,6.0,kofi,8,m,chimpanzee,1.0,38.0,85.0,09:45:24,2.0,Block_2-Block_1,block2,342.0,sharneu_canister.bmp,rouneu_canister.bmp,672.0,1.0,right
munar2015common,4,until_response,2013,08,07,7.0,lobo,9,m,chimpanzee,1.0,38.0,114.0,10:04:07,2.0,Block_2-Block_1,block2,2487.0,rouneu_watch.bmp,rouneu_clock.bmp,638.0,0.0,right
munar2015common,4,until_response,2013,09,11,8.0,kibara,9,f,gorilla,1.0,38.0,59.0,08:54:42,1.0,Block_1-Block_2,block1,455.0,sharneu_calculator.bmp,sharneu_pda.bmp,740.0,1.0,right
munar2015common,4,until_response,2013,09,11,9.0,viringika,18,f,gorilla,1.0,38.0,77.0,09:12:41,2.0,Block_2-Block_1,block2,1483.0,sharneu_briefcase.bmp,rouneu_briefcase.bmp,3747.0,0.0,right
munar2015common,4,until_response,2013,06,14,1.0,gertrudia,20,f,chimpanzee,1.0,39.0,85.0,08:51:13,2.0,Block_2-Block_1,block2,1054.0,sharneu_canister.bmp,rouneu_canister.bmp,2688.0,0.0,right
munar2015common,4,until_response,2013,06,14,2.0,jahaga,20,f,chimpanzee,1.0,39.0,104.0,09:11:41,2.0,Block_2-Block_1,block2,624.0,rouneu_table.bmp,sharneu_table.bmp,331.0,1.0,right
munar2015common,4,until_response,2013,06,14,3.0,fifi,20,f,chimpanzee,1.0,39.0,111.0,09:28:00,2.0,Block_2-Block_1,block2,1129.0,rouneu_lantern.bmp,rouneu_battery.bmp,437.0,0.0,left
munar2015common,4,until_response,2013,06,14,4.0,alex,12,m,chimpanzee,1.0,39.0,73.0,09:44:42,2.0,Block_2-Block_1,block2,341.0,sharneu_basket.bmp,rouneu_basket.bmp,891.0,1.0,left
munar2015common,4,until_response,2013,08,07,5.0,lome,11,m,chimpanzee,1.0,39.0,24.0,10:22:37,1.0,Block_1-Block_2,block1,557.0,sharneu_flowersandpot.bmp,rouneu_flowersandpot.bmp,911.0,1.0,left
munar2015common,4,until_response,2013,08,07,6.0,kofi,8,m,chimpanzee,1.0,39.0,94.0,09:45:24,2.0,Block_2-Block_1,block2,4463.0,rouneu_flower.bmp,sharneu_flower.bmp,828.0,1.0,left
munar2015common,4,until_response,2013,08,07,7.0,lobo,9,m,chimpanzee,1.0,39.0,96.0,10:04:07,2.0,Block_2-Block_1,block2,1019.0,rouneu_flowersandpot.bmp,sharneu_flowersandpot.bmp,746.0,1.0,right
munar2015common,4,until_response,2013,09,11,8.0,kibara,9,f,gorilla,1.0,39.0,12.0,08:54:42,1.0,Block_1-Block_2,block1,1390.0,rouneu_candletray.bmp,sharneu_candletray.bmp,709.0,0.0,left
munar2015common,4,until_response,2013,09,11,9.0,viringika,18,f,gorilla,1.0,39.0,132.0,09:12:41,2.0,Block_2-Block_1,block2,4378.0,sharneu_watch.bmp,sharneu_clock.bmp,849.0,0.0,left
munar2015common,4,until_response,2013,06,14,1.0,gertrudia,20,f,chimpanzee,1.0,40.0,93.0,08:51:13,2.0,Block_2-Block_1,block2,263.0,rouneu_figuretriangle.bmp,sharneu_figuretriangle.bmp,1056.0,1.0,left
munar2015common,4,until_response,2013,06,14,2.0,jahaga,20,f,chimpanzee,1.0,40.0,123.0,09:11:41,2.0,Block_2-Block_1,block2,924.0,rouneu_sponge.bmp,rouneu_scrubbrush.bmp,381.0,0.0,right
munar2015common,4,until_response,2013,06,14,3.0,fifi,20,f,chimpanzee,1.0,40.0,102.0,09:28:00,2.0,Block_2-Block_1,block2,377.0,rouneu_shades.bmp,sharneu_shades.bmp,634.0,1.0,left
munar2015common,4,until_response,2013,06,14,4.0,alex,12,m,chimpanzee,1.0,40.0,125.0,09:44:42,2.0,Block_2-Block_1,block2,1733.0,rouneu_teakettle.bmp,rouneu_teapot.bmp,373.0,0.0,left
munar2015common,4,until_response,2013,08,07,5.0,lome,11,m,chimpanzee,1.0,40.0,39.0,10:22:37,1.0,Block_1-Block_2,block1,5489.0,rouneu_battery.bmp,rouneu_lantern.bmp,691.0,0.0,left
munar2015common,4,until_response,2013,08,07,6.0,kofi,8,m,chimpanzee,1.0,40.0,135.0,09:45:24,2.0,Block_2-Block_1,block2,1649.0,sharneu_nailpolish.bmp,sharneu_lipstick.bmp,653.0,0.0,right
munar2015common,4,until_response,2013,08,07,7.0,lobo,9,m,chimpanzee,1.0,40.0,134.0,10:04:07,2.0,Block_2-Block_1,block2,5584.0,sharneu_officechair.bmp,sharneu_couch.bmp,716.0,0.0,right
munar2015common,4,until_response,2013,09,11,8.0,kibara,9,f,gorilla,1.0,40.0,30.0,08:54:42,1.0,Block_1-Block_2,block1,516.0,sharneu_shades.bmp,rouneu_shades.bmp,695.0,1.0,left
munar2015common,4,until_response,2013,09,11,9.0,viringika,18,f,gorilla,1.0,40.0,93.0,09:12:41,2.0,Block_2-Block_1,block2,654.0,rouneu_figuretriangle.bmp,sharneu_figuretriangle.bmp,650.0,1.0,left
munar2015common,4,until_response,2013,06,14,1.0,gertrudia,20,f,chimpanzee,1.0,41.0,103.0,08:51:13,2.0,Block_2-Block_1,block2,1628.0,rouneu_stool.bmp,sharneu_stool.bmp,1996.0,0.0,left
munar2015common,4,until_response,2013,06,14,2.0,jahaga,20,f,chimpanzee,1.0,41.0,88.0,09:11:41,2.0,Block_2-Block_1,block2,922.0,sharneu_chocolate.bmp,rouneu_chocolate.bmp,369.0,0.0,right
munar2015common,4,until_response,2013,06,14,3.0,fifi,20,f,chimpanzee,1.0,41.0,115.0,09:28:00,2.0,Block_2-Block_1,block2,2959.0,rouneu_vcr.bmp,rouneu_clockalarm.bmp,544.0,1.0,left
munar2015common,4,until_response,2013,06,14,4.0,alex,12,m,chimpanzee,1.0,41.0,114.0,09:44:42,2.0,Block_2-Block_1,block2,361.0,rouneu_watch.bmp,rouneu_clock.bmp,794.0,0.0,right
munar2015common,4,until_response,2013,08,07,5.0,lome,11,m,chimpanzee,1.0,41.0,62.0,10:22:37,1.0,Block_1-Block_2,block1,572.0,sharneu_couch.bmp,sharneu_officechair.bmp,679.0,1.0,left
munar2015common,4,until_response,2013,08,07,6.0,kofi,8,m,chimpanzee,1.0,41.0,130.0,09:45:24,2.0,Block_2-Block_1,block2,451.0,sharneu_mirror.bmp,sharneu_boxlock.bmp,724.0,0.0,right
munar2015common,4,until_response,2013,08,07,7.0,lobo,9,m,chimpanzee,1.0,41.0,122.0,10:04:07,2.0,Block_2-Block_1,block2,104.0,rouneu_speaker.bmp,rouneu_recycle.bmp,717.0,0.0,right
munar2015common,4,until_response,2013,09,11,8.0,kibara,9,f,gorilla,1.0,41.0,28.0,08:54:42,1.0,Block_1-Block_2,block1,2237.0,sharneu_pan.bmp,rouneu_pan.bmp,1504.0,0.0,right
munar2015common,4,until_response,2013,09,11,9.0,viringika,18,f,gorilla,1.0,41.0,114.0,09:12:41,2.0,Block_2-Block_1,block2,4010.0,rouneu_watch.bmp,rouneu_clock.bmp,984.0,0.0,right
munar2015common,4,until_response,2013,06,14,1.0,gertrudia,20,f,chimpanzee,1.0,42.0,106.0,08:51:13,2.0,Block_2-Block_1,block2,564.0,rouneu_tree.bmp,sharneu_tree.bmp,998.0,1.0,left
munar2015common,4,until_response,2013,06,14,2.0,jahaga,20,f,chimpanzee,1.0,42.0,114.0,09:11:41,2.0,Block_2-Block_1,block2,440.0,rouneu_watch.bmp,rouneu_clock.bmp,890.0,1.0,right
munar2015common,4,until_response,2013,06,14,3.0,fifi,20,f,chimpanzee,1.0,42.0,127.0,09:28:00,2.0,Block_2-Block_1,block2,1408.0,sharneu_phone.bmp,sharneu_answering.bmp,641.0,0.0,right
munar2015common,4,until_response,2013,06,14,4.0,alex,12,m,chimpanzee,1.0,42.0,82.0,09:44:42,2.0,Block_2-Block_1,block2,287.0,sharneu_butterfly.bmp,rouneu_butterfly.bmp,596.0,1.0,right
munar2015common,4,until_response,2013,08,07,5.0,lome,11,m,chimpanzee,1.0,42.0,3.0,10:22:37,1.0,Block_1-Block_2,block1,8540.0,rouneu_bench.bmp,sharneu_bench.bmp,603.0,0.0,left
munar2015common,4,until_response,2013,08,07,6.0,kofi,8,m,chimpanzee,1.0,42.0,104.0,09:45:24,2.0,Block_2-Block_1,block2,469.0,rouneu_table.bmp,sharneu_table.bmp,816.0,1.0,right
munar2015common,4,until_response,2013,08,07,7.0,lobo,9,m,chimpanzee,1.0,42.0,142.0,10:04:07,2.0,Block_2-Block_1,block2,2849.0,sharneu_shovel.bmp,sharneu_spatula.bmp,943.0,1.0,right
munar2015common,4,until_response,2013,09,11,8.0,kibara,9,f,gorilla,1.0,42.0,23.0,08:54:42,1.0,Block_1-Block_2,block1,318.0,sharneu_flowerpot.bmp,rouneu_flowerpot.bmp,861.0,1.0,left
munar2015common,4,until_response,2013,09,11,9.0,viringika,18,f,gorilla,1.0,42.0,111.0,09:12:41,2.0,Block_2-Block_1,block2,6657.0,rouneu_lantern.bmp,rouneu_battery.bmp,621.0,1.0,left
munar2015common,4,until_response,2013,06,14,1.0,gertrudia,20,f,chimpanzee,1.0,43.0,74.0,08:51:13,2.0,Block_2-Block_1,block2,1448.0,sharneu_basket2.bmp,rouneu_basket2.bmp,1539.0,0.0,left
munar2015common,4,until_response,2013,06,14,2.0,jahaga,20,f,chimpanzee,1.0,43.0,124.0,09:11:41,2.0,Block_2-Block_1,block2,11865.0,rouneu_shovel.bmp,rouneu_spatula.bmp,755.0,1.0,left
munar2015common,4,until_response,2013,06,14,3.0,fifi,20,f,chimpanzee,1.0,43.0,136.0,09:28:00,2.0,Block_2-Block_1,block2,142.0,sharneu_printer.bmp,sharneu_mailbox.bmp,753.0,0.0,left
munar2015common,4,until_response,2013,06,14,4.0,alex,12,m,chimpanzee,1.0,43.0,113.0,09:44:42,2.0,Block_2-Block_1,block2,6766.0,rouneu_pda.bmp,rouneu_calculator.bmp,836.0,0.0,left
munar2015common,4,until_response,2013,08,07,5.0,lome,11,m,chimpanzee,1.0,43.0,51.0,10:22:37,1.0,Block_1-Block_2,block1,797.0,rouneu_scrubbrush.bmp,rouneu_sponge.bmp,808.0,1.0,left
munar2015common,4,until_response,2013,08,07,6.0,kofi,8,m,chimpanzee,1.0,43.0,124.0,09:45:24,2.0,Block_2-Block_1,block2,6489.0,rouneu_shovel.bmp,rouneu_spatula.bmp,841.0,1.0,right
munar2015common,4,until_response,2013,08,07,7.0,lobo,9,m,chimpanzee,1.0,43.0,144.0,10:04:07,2.0,Block_2-Block_1,block2,7088.0,sharneu_camera.bmp,sharneu_television.bmp,710.0,1.0,left
munar2015common,4,until_response,2013,09,11,8.0,kibara,9,f,gorilla,1.0,43.0,8.0,08:54:42,1.0,Block_1-Block_2,block1,3526.0,rouneu_bucket.bmp,sharneu_bucket.bmp,1134.0,1.0,left
munar2015common,4,until_response,2013,09,11,9.0,viringika,18,f,gorilla,1.0,43.0,124.0,09:12:41,2.0,Block_2-Block_1,block2,3283.0,rouneu_shovel.bmp,rouneu_spatula.bmp,763.0,1.0,right
munar2015common,4,until_response,2013,06,14,1.0,gertrudia,20,f,chimpanzee,1.0,44.0,87.0,08:51:13,2.0,Block_2-Block_1,block2,164.0,sharneu_chineselantern.bmp,rouneu_chineselantern.bmp,1417.0,1.0,right
munar2015common,4,until_response,2013,06,14,2.0,jahaga,20,f,chimpanzee,1.0,44.0,108.0,09:11:41,2.0,Block_2-Block_1,block2,678.0,rouneu_windchime.bmp,sharneu_windchime.bmp,405.0,0.0,right
munar2015common,4,until_response,2013,06,14,3.0,fifi,20,f,chimpanzee,1.0,44.0,96.0,09:28:00,2.0,Block_2-Block_1,block2,96.0,rouneu_flowersandpot.bmp,sharneu_flowersandpot.bmp,687.0,1.0,left
munar2015common,4,until_response,2013,06,14,4.0,alex,12,m,chimpanzee,1.0,44.0,132.0,09:44:42,2.0,Block_2-Block_1,block2,488.0,sharneu_watch.bmp,sharneu_clock.bmp,447.0,1.0,left
munar2015common,4,until_response,2013,08,07,5.0,lome,11,m,chimpanzee,1.0,44.0,67.0,10:22:37,1.0,Block_1-Block_2,block1,5542.0,sharneu_radioantique.bmp,sharneu_toaster.bmp,1424.0,0.0,right
munar2015common,4,until_response,2013,08,07,6.0,kofi,8,m,chimpanzee,1.0,44.0,95.0,09:45:24,2.0,Block_2-Block_1,block2,2230.0,rouneu_flowerpot.bmp,sharneu_flowerpot.bmp,768.0,0.0,left
munar2015common,4,until_response,2013,08,07,7.0,lobo,9,m,chimpanzee,1.0,44.0,87.0,10:04:07,2.0,Block_2-Block_1,block2,2958.0,sharneu_chineselantern.bmp,rouneu_chineselantern.bmp,742.0,0.0,right
munar2015common,4,until_response,2013,09,11,8.0,kibara,9,f,gorilla,1.0,44.0,2.0,08:54:42,1.0,Block_1-Block_2,block1,3497.0,rouneu_basket2.bmp,sharneu_basket2.bmp,900.0,0.0,left
munar2015common,4,until_response,2013,09,11,9.0,viringika,18,f,gorilla,1.0,44.0,125.0,09:12:41,2.0,Block_2-Block_1,block2,3422.0,rouneu_teakettle.bmp,rouneu_teapot.bmp,451.0,0.0,right
munar2015common,4,until_response,2013,06,14,1.0,gertrudia,20,f,chimpanzee,1.0,45.0,91.0,08:51:13,2.0,Block_2-Block_1,block2,790.0,rouneu_cuttingboard.bmp,sharneu_cuttingboard.bmp,1001.0,1.0,left
munar2015common,4,until_response,2013,06,14,2.0,jahaga,20,f,chimpanzee,1.0,45.0,98.0,09:11:41,2.0,Block_2-Block_1,block2,4760.0,rouneu_leaf.bmp,sharneu_leaf.bmp,395.0,0.0,right
munar2015common,4,until_response,2013,06,14,3.0,fifi,20,f,chimpanzee,1.0,45.0,128.0,09:28:00,2.0,Block_2-Block_1,block2,828.0,sharneu_pizza.bmp,sharneu_ashtray.bmp,645.0,1.0,right
munar2015common,4,until_response,2013,06,14,4.0,alex,12,m,chimpanzee,1.0,45.0,86.0,09:44:42,2.0,Block_2-Block_1,block2,5759.0,sharneu_cheese.bmp,rouneu_cheese.bmp,625.0,0.0,left
munar2015common,4,until_response,2013,08,07,5.0,lome,11,m,chimpanzee,1.0,45.0,55.0,10:22:37,1.0,Block_1-Block_2,block1,2332.0,sharneu_answering.bmp,sharneu_phone.bmp,653.0,0.0,left
munar2015common,4,until_response,2013,08,07,6.0,kofi,8,m,chimpanzee,1.0,45.0,101.0,09:45:24,2.0,Block_2-Block_1,block2,452.0,rouneu_pictureframe.bmp,sharneu_pictureframe.bmp,826.0,1.0,left
munar2015common,4,until_response,2013,08,07,7.0,lobo,9,m,chimpanzee,1.0,45.0,137.0,10:04:07,2.0,Block_2-Block_1,block2,753.0,sharneu_purse2.bmp,sharneu_padlock.bmp,677.0,0.0,left
munar2015common,4,until_response,2013,09,11,8.0,kibara,9,f,gorilla,1.0,45.0,63.0,08:54:42,1.0,Block_1-Block_2,block1,413.0,sharneu_lipstick.bmp,sharneu_nailpolish.bmp,836.0,1.0,right
munar2015common,4,until_response,2013,09,11,9.0,viringika,18,f,gorilla,1.0,45.0,80.0,09:12:41,2.0,Block_2-Block_1,block2,5225.0,sharneu_bucket.bmp,rouneu_bucket.bmp,755.0,1.0,left
munar2015common,4,until_response,2013,06,14,1.0,gertrudia,20,f,chimpanzee,1.0,46.0,128.0,08:51:13,2.0,Block_2-Block_1,block2,1515.0,sharneu_pizza.bmp,sharneu_ashtray.bmp,988.0,0.0,left
munar2015common,4,until_response,2013,06,14,2.0,jahaga,20,f,chimpanzee,1.0,46.0,91.0,09:11:41,2.0,Block_2-Block_1,block2,1373.0,rouneu_cuttingboard.bmp,sharneu_cuttingboard.bmp,390.0,1.0,right
munar2015common,4,until_response,2013,06,14,3.0,fifi,20,f,chimpanzee,1.0,46.0,75.0,09:28:00,2.0,Block_2-Block_1,block2,1516.0,sharneu_bench.bmp,rouneu_bench.bmp,553.0,0.0,left
munar2015common,4,until_response,2013,06,14,4.0,alex,12,m,chimpanzee,1.0,46.0,143.0,09:44:42,2.0,Block_2-Block_1,block2,3442.0,sharneu_teakettle.bmp,sharneu_teapot.bmp,425.0,1.0,left
munar2015common,4,until_response,2013,08,07,5.0,lome,11,m,chimpanzee,1.0,46.0,45.0,10:22:37,1.0,Block_1-Block_2,block1,747.0,rouneu_lipstick.bmp,rouneu_nailpolish.bmp,638.0,1.0,left
munar2015common,4,until_response,2013,08,07,6.0,kofi,8,m,chimpanzee,1.0,46.0,129.0,09:45:24,2.0,Block_2-Block_1,block2,4157.0,sharneu_lantern.bmp,sharneu_battery.bmp,732.0,0.0,left
munar2015common,4,until_response,2013,08,07,7.0,lobo,9,m,chimpanzee,1.0,46.0,136.0,10:04:07,2.0,Block_2-Block_1,block2,608.0,sharneu_printer.bmp,sharneu_mailbox.bmp,822.0,1.0,right
munar2015common,4,until_response,2013,09,11,8.0,kibara,9,f,gorilla,1.0,46.0,21.0,08:54:42,1.0,Block_1-Block_2,block1,3199.0,sharneu_figuretriangle.bmp,rouneu_figuretriangle.bmp,820.0,0.0,left
munar2015common,4,until_response,2013,09,11,9.0,viringika,18,f,gorilla,1.0,46.0,110.0,09:12:41,2.0,Block_2-Block_1,block2,4671.0,rouneu_pizza.bmp,rouneu_ashtray.bmp,550.0,0.0,left
munar2015common,4,until_response,2013,06,14,1.0,gertrudia,20,f,chimpanzee,1.0,47.0,105.0,08:51:13,2.0,Block_2-Block_1,block2,623.0,rouneu_tent.bmp,sharneu_tent.bmp,650.0,1.0,left
munar2015common,4,until_response,2013,06,14,2.0,jahaga,20,f,chimpanzee,1.0,47.0,126.0,09:11:41,2.0,Block_2-Block_1,block2,2931.0,rouneu_camera.bmp,rouneu_television.bmp,619.0,0.0,right
munar2015common,4,until_response,2013,06,14,3.0,fifi,20,f,chimpanzee,1.0,47.0,84.0,09:28:00,2.0,Block_2-Block_1,block2,68.0,sharneu_candletray.bmp,rouneu_candletray.bmp,814.0,0.0,right
munar2015common,4,until_response,2013,06,14,4.0,alex,12,m,chimpanzee,1.0,47.0,141.0,09:44:42,2.0,Block_2-Block_1,block2,1516.0,sharneu_sponge.bmp,sharneu_scrubbrush.bmp,374.0,1.0,left
munar2015common,4,until_response,2013,08,07,5.0,lome,11,m,chimpanzee,1.0,47.0,43.0,10:22:37,1.0,Block_1-Block_2,block1,5883.0,rouneu_clockalarm.bmp,rouneu_vcr.bmp,584.0,1.0,left
munar2015common,4,until_response,2013,08,07,6.0,kofi,8,m,chimpanzee,1.0,47.0,111.0,09:45:24,2.0,Block_2-Block_1,block2,546.0,rouneu_lantern.bmp,rouneu_battery.bmp,827.0,0.0,left
munar2015common,4,until_response,2013,08,07,7.0,lobo,9,m,chimpanzee,1.0,47.0,110.0,10:04:07,2.0,Block_2-Block_1,block2,3540.0,rouneu_pizza.bmp,rouneu_ashtray.bmp,1272.0,1.0,right
munar2015common,4,until_response,2013,09,11,8.0,kibara,9,f,gorilla,1.0,47.0,3.0,08:54:42,1.0,Block_1-Block_2,block1,497.0,rouneu_bench.bmp,sharneu_bench.bmp,852.0,0.0,left
munar2015common,4,until_response,2013,09,11,9.0,viringika,18,f,gorilla,1.0,47.0,116.0,09:12:41,2.0,Block_2-Block_1,block2,2733.0,rouneu_officechair.bmp,rouneu_couch.bmp,775.0,0.0,left
munar2015common,4,until_response,2013,06,14,1.0,gertrudia,20,f,chimpanzee,1.0,48.0,109.0,08:51:13,2.0,Block_2-Block_1,block2,1198.0,rouneu_phone.bmp,rouneu_answering.bmp,1338.0,0.0,right
munar2015common,4,until_response,2013,06,14,2.0,jahaga,20,f,chimpanzee,1.0,48.0,144.0,09:11:41,2.0,Block_2-Block_1,block2,277.0,sharneu_camera.bmp,sharneu_television.bmp,624.0,1.0,right
munar2015common,4,until_response,2013,06,14,3.0,fifi,20,f,chimpanzee,1.0,48.0,122.0,09:28:00,2.0,Block_2-Block_1,block2,372.0,rouneu_speaker.bmp,rouneu_recycle.bmp,679.0,1.0,left
munar2015common,4,until_response,2013,06,14,4.0,alex,12,m,chimpanzee,1.0,48.0,140.0,09:44:42,2.0,Block_2-Block_1,block2,2756.0,sharneu_speaker.bmp,sharneu_recyclebin.bmp,571.0,0.0,left
munar2015common,4,until_response,2013,08,07,5.0,lome,11,m,chimpanzee,1.0,48.0,29.0,10:22:37,1.0,Block_1-Block_2,block1,4475.0,sharneu_pictureframe.bmp,rouneu_pictureframe.bmp,684.0,0.0,left
munar2015common,4,until_response,2013,08,07,6.0,kofi,8,m,chimpanzee,1.0,48.0,106.0,09:45:24,2.0,Block_2-Block_1,block2,61.0,rouneu_tree.bmp,sharneu_tree.bmp,674.0,1.0,left
munar2015common,4,until_response,2013,08,07,7.0,lobo,9,m,chimpanzee,1.0,48.0,104.0,10:04:07,2.0,Block_2-Block_1,block2,3409.0,rouneu_table.bmp,sharneu_table.bmp,573.0,0.0,right
munar2015common,4,until_response,2013,09,11,8.0,kibara,9,f,gorilla,1.0,48.0,34.0,08:54:42,1.0,Block_1-Block_2,block1,602.0,sharneu_tree.bmp,rouneu_tree.bmp,881.0,1.0,right
munar2015common,4,until_response,2013,09,11,9.0,viringika,18,f,gorilla,1.0,48.0,79.0,09:12:41,2.0,Block_2-Block_1,block2,128.0,sharneu_brushsmall.bmp,rouneu_brushsmall.bmp,597.0,1.0,right
munar2015common,4,until_response,2013,06,14,1.0,gertrudia,20,f,chimpanzee,1.0,49.0,120.0,08:51:13,2.0,Block_2-Block_1,block2,133.0,rouneu_remote.bmp,rouneu_phonecordless.bmp,999.0,1.0,left
munar2015common,4,until_response,2013,06,14,2.0,jahaga,20,f,chimpanzee,1.0,49.0,73.0,09:11:41,2.0,Block_2-Block_1,block2,2745.0,sharneu_basket.bmp,rouneu_basket.bmp,576.0,1.0,right
munar2015common,4,until_response,2013,06,14,3.0,fifi,20,f,chimpanzee,1.0,49.0,138.0,09:28:00,2.0,Block_2-Block_1,block2,1024.0,sharneu_remote.bmp,sharneu_phonecordless.bmp,641.0,0.0,right
munar2015common,4,until_response,2013,06,14,4.0,alex,12,m,chimpanzee,1.0,49.0,104.0,09:44:42,2.0,Block_2-Block_1,block2,289.0,rouneu_table.bmp,sharneu_table.bmp,559.0,1.0,right
munar2015common,4,until_response,2013,08,07,5.0,lome,11,m,chimpanzee,1.0,49.0,40.0,10:22:37,1.0,Block_1-Block_2,block1,2795.0,rouneu_boxlock.bmp,rouneu_mirror.bmp,676.0,1.0,left
munar2015common,4,until_response,2013,08,07,6.0,kofi,8,m,chimpanzee,1.0,49.0,92.0,09:45:24,2.0,Block_2-Block_1,block2,1329.0,rouneu_figureblock.bmp,sharneu_figureblock.bmp,776.0,0.0,left
munar2015common,4,until_response,2013,08,07,7.0,lobo,9,m,chimpanzee,1.0,49.0,94.0,10:04:07,2.0,Block_2-Block_1,block2,671.0,rouneu_flower.bmp,sharneu_flower.bmp,809.0,1.0,right
munar2015common,4,until_response,2013,09,11,8.0,kibara,9,f,gorilla,1.0,49.0,47.0,08:54:42,1.0,Block_1-Block_2,block1,2967.0,rouneu_padlock.bmp,rouneu_purse2.bmp,893.0,0.0,left
munar2015common,4,until_response,2013,09,11,9.0,viringika,18,f,gorilla,1.0,49.0,74.0,09:12:41,2.0,Block_2-Block_1,block2,2970.0,sharneu_basket2.bmp,rouneu_basket2.bmp,382.0,0.0,left
munar2015common,4,until_response,2013,06,14,1.0,gertrudia,20,f,chimpanzee,1.0,50.0,140.0,08:51:13,2.0,Block_2-Block_1,block2,845.0,sharneu_speaker.bmp,sharneu_recyclebin.bmp,885.0,0.0,left
munar2015common,4,until_response,2013,06,14,2.0,jahaga,20,f,chimpanzee,1.0,50.0,76.0,09:11:41,2.0,Block_2-Block_1,block2,1139.0,sharneu_birdhouse.bmp,rouneu_birdhouse.bmp,509.0,0.0,left
munar2015common,4,until_response,2013,06,14,3.0,fifi,20,f,chimpanzee,1.0,50.0,98.0,09:28:00,2.0,Block_2-Block_1,block2,483.0,rouneu_leaf.bmp,sharneu_leaf.bmp,569.0,1.0,left
munar2015common,4,until_response,2013,06,14,4.0,alex,12,m,chimpanzee,1.0,50.0,118.0,09:44:42,2.0,Block_2-Block_1,block2,2744.0,rouneu_printer.bmp,rouneu_mailbox.bmp,375.0,0.0,left
munar2015common,4,until_response,2013,08,07,5.0,lome,11,m,chimpanzee,1.0,50.0,12.0,10:22:37,1.0,Block_1-Block_2,block1,4607.0,rouneu_candletray.bmp,sharneu_candletray.bmp,732.0,0.0,left
munar2015common,4,until_response,2013,08,07,6.0,kofi,8,m,chimpanzee,1.0,50.0,118.0,09:45:24,2.0,Block_2-Block_1,block2,231.0,rouneu_printer.bmp,rouneu_mailbox.bmp,657.0,1.0,left
munar2015common,4,until_response,2013,08,07,7.0,lobo,9,m,chimpanzee,1.0,50.0,81.0,10:04:07,2.0,Block_2-Block_1,block2,3129.0,sharneu_bundtpan.bmp,rouneu_bundtpan.bmp,787.0,0.0,right
munar2015common,4,until_response,2013,09,11,8.0,kibara,9,f,gorilla,1.0,50.0,29.0,08:54:42,1.0,Block_1-Block_2,block1,371.0,sharneu_pictureframe.bmp,rouneu_pictureframe.bmp,715.0,1.0,left
munar2015common,4,until_response,2013,09,11,9.0,viringika,18,f,gorilla,1.0,50.0,126.0,09:12:41,2.0,Block_2-Block_1,block2,1662.0,rouneu_camera.bmp,rouneu_television.bmp,427.0,1.0,right
munar2015common,4,until_response,2013,06,14,1.0,gertrudia,20,f,chimpanzee,1.0,51.0,142.0,08:51:13,2.0,Block_2-Block_1,block2,1050.0,sharneu_shovel.bmp,sharneu_spatula.bmp,2544.0,1.0,right
munar2015common,4,until_response,2013,06,14,2.0,jahaga,20,f,chimpanzee,1.0,51.0,119.0,09:11:41,2.0,Block_2-Block_1,block2,384.0,rouneu_purse2.bmp,rouneu_padlock.bmp,604.0,0.0,right
munar2015common,4,until_response,2013,06,14,3.0,fifi,20,f,chimpanzee,1.0,51.0,139.0,09:28:00,2.0,Block_2-Block_1,block2,774.0,sharneu_toaster.bmp,sharneu_radioantique.bmp,1061.0,0.0,right
munar2015common,4,until_response,2013,06,14,4.0,alex,12,m,chimpanzee,1.0,51.0,106.0,09:44:42,2.0,Block_2-Block_1,block2,434.0,rouneu_tree.bmp,sharneu_tree.bmp,343.0,0.0,left
munar2015common,4,until_response,2013,08,07,5.0,lome,11,m,chimpanzee,1.0,51.0,64.0,10:22:37,1.0,Block_1-Block_2,block1,1033.0,sharneu_mailbox.bmp,sharneu_printer.bmp,773.0,0.0,left
munar2015common,4,until_response,2013,08,07,6.0,kofi,8,m,chimpanzee,1.0,51.0,119.0,09:45:24,2.0,Block_2-Block_1,block2,9159.0,rouneu_purse2.bmp,rouneu_padlock.bmp,715.0,1.0,left
munar2015common,4,until_response,2013,08,07,7.0,lobo,9,m,chimpanzee,1.0,51.0,115.0,10:04:07,2.0,Block_2-Block_1,block2,728.0,rouneu_vcr.bmp,rouneu_clockalarm.bmp,625.0,1.0,right
munar2015common,4,until_response,2013,09,11,8.0,kibara,9,f,gorilla,1.0,51.0,39.0,08:54:42,1.0,Block_1-Block_2,block1,715.0,rouneu_battery.bmp,rouneu_lantern.bmp,1777.0,1.0,right
munar2015common,4,until_response,2013,09,11,9.0,viringika,18,f,gorilla,1.0,51.0,135.0,09:12:41,2.0,Block_2-Block_1,block2,6967.0,sharneu_nailpolish.bmp,sharneu_lipstick.bmp,658.0,1.0,left
munar2015common,4,until_response,2013,06,14,1.0,gertrudia,20,f,chimpanzee,1.0,52.0,73.0,08:51:13,2.0,Block_2-Block_1,block2,821.0,sharneu_basket.bmp,rouneu_basket.bmp,778.0,0.0,left
munar2015common,4,until_response,2013,06,14,2.0,jahaga,20,f,chimpanzee,1.0,52.0,138.0,09:11:41,2.0,Block_2-Block_1,block2,49.0,sharneu_remote.bmp,sharneu_phonecordless.bmp,389.0,1.0,right
munar2015common,4,until_response,2013,06,14,3.0,fifi,20,f,chimpanzee,1.0,52.0,73.0,09:28:00,2.0,Block_2-Block_1,block2,186.0,sharneu_basket.bmp,rouneu_basket.bmp,546.0,1.0,left
munar2015common,4,until_response,2013,06,14,4.0,alex,12,m,chimpanzee,1.0,52.0,138.0,09:44:42,2.0,Block_2-Block_1,block2,354.0,sharneu_remote.bmp,sharneu_phonecordless.bmp,448.0,1.0,left
munar2015common,4,until_response,2013,08,07,5.0,lome,11,m,chimpanzee,1.0,52.0,14.0,10:22:37,1.0,Block_1-Block_2,block1,311.0,rouneu_cheese.bmp,sharneu_cheese.bmp,745.0,1.0,left
munar2015common,4,until_response,2013,08,07,6.0,kofi,8,m,chimpanzee,1.0,52.0,73.0,09:45:24,2.0,Block_2-Block_1,block2,4973.0,sharneu_basket.bmp,rouneu_basket.bmp,771.0,0.0,left
munar2015common,4,until_response,2013,08,07,7.0,lobo,9,m,chimpanzee,1.0,52.0,112.0,10:04:07,2.0,Block_2-Block_1,block2,8883.0,rouneu_mirror.bmp,rouneu_boxlock.bmp,827.0,0.0,right
munar2015common,4,until_response,2013,09,11,8.0,kibara,9,f,gorilla,1.0,52.0,32.0,08:54:42,1.0,Block_1-Block_2,block1,779.0,sharneu_table.bmp,rouneu_table.bmp,1779.0,0.0,right
munar2015common,4,until_response,2013,09,11,9.0,viringika,18,f,gorilla,1.0,52.0,76.0,09:12:41,2.0,Block_2-Block_1,block2,3924.0,sharneu_birdhouse.bmp,rouneu_birdhouse.bmp,343.0,0.0,left
munar2015common,4,until_response,2013,06,14,1.0,gertrudia,20,f,chimpanzee,1.0,53.0,127.0,08:51:13,2.0,Block_2-Block_1,block2,363.0,sharneu_phone.bmp,sharneu_answering.bmp,1247.0,0.0,right
munar2015common,4,until_response,2013,06,14,2.0,jahaga,20,f,chimpanzee,1.0,53.0,118.0,09:11:41,2.0,Block_2-Block_1,block2,934.0,rouneu_printer.bmp,rouneu_mailbox.bmp,334.0,0.0,right
munar2015common,4,until_response,2013,06,14,3.0,fifi,20,f,chimpanzee,1.0,53.0,97.0,09:28:00,2.0,Block_2-Block_1,block2,1255.0,rouneu_gem.bmp,sharneu_gem.bmp,588.0,0.0,left
munar2015common,4,until_response,2013,06,14,4.0,alex,12,m,chimpanzee,1.0,53.0,79.0,09:44:42,2.0,Block_2-Block_1,block2,4107.0,sharneu_brushsmall.bmp,rouneu_brushsmall.bmp,1322.0,0.0,left
munar2015common,4,until_response,2013,08,07,5.0,lome,11,m,chimpanzee,1.0,53.0,46.0,10:22:37,1.0,Block_1-Block_2,block1,6729.0,rouneu_mailbox.bmp,rouneu_printer.bmp,1838.0,0.0,left
munar2015common,4,until_response,2013,08,07,6.0,kofi,8,m,chimpanzee,1.0,53.0,121.0,09:45:24,2.0,Block_2-Block_1,block2,62.0,rouneu_toaster.bmp,rouneu_radioantique.bmp,896.0,1.0,left
munar2015common,4,until_response,2013,08,07,7.0,lobo,9,m,chimpanzee,1.0,53.0,139.0,10:04:07,2.0,Block_2-Block_1,block2,457.0,sharneu_toaster.bmp,sharneu_radioantique.bmp,1131.0,0.0,right
munar2015common,4,until_response,2013,09,11,8.0,kibara,9,f,gorilla,1.0,53.0,40.0,08:54:42,1.0,Block_1-Block_2,block1,435.0,rouneu_boxlock.bmp,rouneu_mirror.bmp,853.0,0.0,left
munar2015common,4,until_response,2013,09,11,9.0,viringika,18,f,gorilla,1.0,53.0,118.0,09:12:41,2.0,Block_2-Block_1,block2,2110.0,rouneu_printer.bmp,rouneu_mailbox.bmp,631.0,1.0,right
munar2015common,4,until_response,2013,06,14,1.0,gertrudia,20,f,chimpanzee,1.0,54.0,116.0,08:51:13,2.0,Block_2-Block_1,block2,360.0,rouneu_officechair.bmp,rouneu_couch.bmp,805.0,1.0,left
munar2015common,4,until_response,2013,06,14,2.0,jahaga,20,f,chimpanzee,1.0,54.0,94.0,09:11:41,2.0,Block_2-Block_1,block2,315.0,rouneu_flower.bmp,sharneu_flower.bmp,369.0,1.0,right
munar2015common,4,until_response,2013,06,14,3.0,fifi,20,f,chimpanzee,1.0,54.0,109.0,09:28:00,2.0,Block_2-Block_1,block2,240.0,rouneu_phone.bmp,rouneu_answering.bmp,679.0,1.0,right
munar2015common,4,until_response,2013,06,14,4.0,alex,12,m,chimpanzee,1.0,54.0,109.0,09:44:42,2.0,Block_2-Block_1,block2,220.0,rouneu_phone.bmp,rouneu_answering.bmp,377.0,1.0,left
munar2015common,4,until_response,2013,08,07,5.0,lome,11,m,chimpanzee,1.0,54.0,54.0,10:22:37,1.0,Block_1-Block_2,block1,110.0,rouneu_television.bmp,rouneu_camera.bmp,573.0,1.0,left
munar2015common,4,until_response,2013,08,07,6.0,kofi,8,m,chimpanzee,1.0,54.0,81.0,09:45:24,2.0,Block_2-Block_1,block2,964.0,sharneu_bundtpan.bmp,rouneu_bundtpan.bmp,767.0,0.0,left
munar2015common,4,until_response,2013,08,07,7.0,lobo,9,m,chimpanzee,1.0,54.0,111.0,10:04:07,2.0,Block_2-Block_1,block2,22.0,rouneu_lantern.bmp,rouneu_battery.bmp,870.0,1.0,left
munar2015common,4,until_response,2013,09,11,8.0,kibara,9,f,gorilla,1.0,54.0,58.0,08:54:42,1.0,Block_1-Block_2,block1,405.0,sharneu_boxlock.bmp,sharneu_mirror.bmp,850.0,1.0,left
munar2015common,4,until_response,2013,09,11,9.0,viringika,18,f,gorilla,1.0,54.0,97.0,09:12:41,2.0,Block_2-Block_1,block2,2255.0,rouneu_gem.bmp,sharneu_gem.bmp,412.0,0.0,left
munar2015common,4,until_response,2013,06,14,1.0,gertrudia,20,f,chimpanzee,1.0,55.0,99.0,08:51:13,2.0,Block_2-Block_1,block2,1248.0,rouneu_mirrorbig.bmp,sharneu_mirrorbig.bmp,1498.0,0.0,right
munar2015common,4,until_response,2013,06,14,2.0,jahaga,20,f,chimpanzee,1.0,55.0,111.0,09:11:41,2.0,Block_2-Block_1,block2,1811.0,rouneu_lantern.bmp,rouneu_battery.bmp,335.0,0.0,right
munar2015common,4,until_response,2013,06,14,3.0,fifi,20,f,chimpanzee,1.0,55.0,120.0,09:28:00,2.0,Block_2-Block_1,block2,650.0,rouneu_remote.bmp,rouneu_phonecordless.bmp,502.0,0.0,left
munar2015common,4,until_response,2013,06,14,4.0,alex,12,m,chimpanzee,1.0,55.0,107.0,09:44:42,2.0,Block_2-Block_1,block2,1826.0,rouneu_vase.bmp,sharneu_vase.bmp,383.0,1.0,left
munar2015common,4,until_response,2013,08,07,5.0,lome,11,m,chimpanzee,1.0,55.0,63.0,10:22:37,1.0,Block_1-Block_2,block1,6401.0,sharneu_lipstick.bmp,sharneu_nailpolish.bmp,2076.0,0.0,left
munar2015common,4,until_response,2013,08,07,6.0,kofi,8,m,chimpanzee,1.0,55.0,84.0,09:45:24,2.0,Block_2-Block_1,block2,559.0,sharneu_candletray.bmp,rouneu_candletray.bmp,1692.0,0.0,right
munar2015common,4,until_response,2013,08,07,7.0,lobo,9,m,chimpanzee,1.0,55.0,90.0,10:04:07,2.0,Block_2-Block_1,block2,3647.0,sharneu_cushion.bmp,rouneu_cushion.bmp,707.0,0.0,right
munar2015common,4,until_response,2013,09,11,8.0,kibara,9,f,gorilla,1.0,55.0,46.0,08:54:42,1.0,Block_1-Block_2,block1,2635.0,rouneu_mailbox.bmp,rouneu_printer.bmp,1652.0,1.0,left
munar2015common,4,until_response,2013,09,11,9.0,viringika,18,f,gorilla,1.0,55.0,130.0,09:12:41,2.0,Block_2-Block_1,block2,1100.0,sharneu_mirror.bmp,sharneu_boxlock.bmp,2215.0,1.0,right
munar2015common,4,until_response,2013,06,14,1.0,gertrudia,20,f,chimpanzee,1.0,56.0,123.0,08:51:13,2.0,Block_2-Block_1,block2,117.0,rouneu_sponge.bmp,rouneu_scrubbrush.bmp,1604.0,1.0,left
munar2015common,4,until_response,2013,06,14,2.0,jahaga,20,f,chimpanzee,1.0,56.0,96.0,09:11:41,2.0,Block_2-Block_1,block2,506.0,rouneu_flowersandpot.bmp,sharneu_flowersandpot.bmp,720.0,1.0,right
munar2015common,4,until_response,2013,06,14,3.0,fifi,20,f,chimpanzee,1.0,56.0,86.0,09:28:00,2.0,Block_2-Block_1,block2,136.0,sharneu_cheese.bmp,rouneu_cheese.bmp,736.0,1.0,left
munar2015common,4,until_response,2013,06,14,4.0,alex,12,m,chimpanzee,1.0,56.0,90.0,09:44:42,2.0,Block_2-Block_1,block2,1876.0,sharneu_cushion.bmp,rouneu_cushion.bmp,604.0,0.0,left
munar2015common,4,until_response,2013,08,07,5.0,lome,11,m,chimpanzee,1.0,56.0,16.0,10:22:37,1.0,Block_1-Block_2,block1,598.0,rouneu_chocolate.bmp,sharneu_chocolate.bmp,852.0,1.0,left
munar2015common,4,until_response,2013,08,07,6.0,kofi,8,m,chimpanzee,1.0,56.0,103.0,09:45:24,2.0,Block_2-Block_1,block2,420.0,rouneu_stool.bmp,sharneu_stool.bmp,777.0,1.0,left
munar2015common,4,until_response,2013,08,07,7.0,lobo,9,m,chimpanzee,1.0,56.0,140.0,10:04:07,2.0,Block_2-Block_1,block2,350.0,sharneu_speaker.bmp,sharneu_recyclebin.bmp,683.0,1.0,right
munar2015common,4,until_response,2013,09,11,8.0,kibara,9,f,gorilla,1.0,56.0,5.0,08:54:42,1.0,Block_1-Block_2,block1,3172.0,rouneu_briefcase.bmp,sharneu_briefcase.bmp,852.0,0.0,left
munar2015common,4,until_response,2013,09,11,9.0,viringika,18,f,gorilla,1.0,56.0,85.0,09:12:41,2.0,Block_2-Block_1,block2,2776.0,sharneu_canister.bmp,rouneu_canister.bmp,718.0,0.0,left
munar2015common,4,until_response,2013,06,14,1.0,gertrudia,20,f,chimpanzee,1.0,57.0,114.0,08:51:13,2.0,Block_2-Block_1,block2,1257.0,rouneu_watch.bmp,rouneu_clock.bmp,3830.0,0.0,right
munar2015common,4,until_response,2013,06,14,2.0,jahaga,20,f,chimpanzee,1.0,57.0,128.0,09:11:41,2.0,Block_2-Block_1,block2,1205.0,sharneu_pizza.bmp,sharneu_ashtray.bmp,348.0,0.0,right
munar2015common,4,until_response,2013,06,14,3.0,fifi,20,f,chimpanzee,1.0,57.0,135.0,09:28:00,2.0,Block_2-Block_1,block2,21203.0,sharneu_nailpolish.bmp,sharneu_lipstick.bmp,544.0,0.0,left
munar2015common,4,until_response,2013,06,14,4.0,alex,12,m,chimpanzee,1.0,57.0,133.0,09:44:42,2.0,Block_2-Block_1,block2,581.0,sharneu_vcr.bmp,sharneu_clockalarm.bmp,607.0,1.0,right
munar2015common,4,until_response,2013,08,07,5.0,lome,11,m,chimpanzee,1.0,57.0,61.0,10:22:37,1.0,Block_1-Block_2,block1,6886.0,sharneu_clockalarm.bmp,sharneu_vcr.bmp,908.0,1.0,left
munar2015common,4,until_response,2013,08,07,6.0,kofi,8,m,chimpanzee,1.0,57.0,115.0,09:45:24,2.0,Block_2-Block_1,block2,1962.0,rouneu_vcr.bmp,rouneu_clockalarm.bmp,636.0,1.0,left
munar2015common,4,until_response,2013,08,07,7.0,lobo,9,m,chimpanzee,1.0,57.0,99.0,10:04:07,2.0,Block_2-Block_1,block2,4914.0,rouneu_mirrorbig.bmp,sharneu_mirrorbig.bmp,993.0,0.0,right
munar2015common,4,until_response,2013,09,11,8.0,kibara,9,f,gorilla,1.0,57.0,37.0,08:54:42,1.0,Block_1-Block_2,block1,780.0,rouneu_answering.bmp,rouneu_phone.bmp,1092.0,0.0,left
munar2015common,4,until_response,2013,09,11,9.0,viringika,18,f,gorilla,1.0,57.0,75.0,09:12:41,2.0,Block_2-Block_1,block2,1670.0,sharneu_bench.bmp,rouneu_bench.bmp,496.0,0.0,right
munar2015common,4,until_response,2013,06,14,1.0,gertrudia,20,f,chimpanzee,1.0,58.0,143.0,08:51:13,2.0,Block_2-Block_1,block2,1735.0,sharneu_teakettle.bmp,sharneu_teapot.bmp,1066.0,1.0,left
munar2015common,4,until_response,2013,06,14,2.0,jahaga,20,f,chimpanzee,1.0,58.0,86.0,09:11:41,2.0,Block_2-Block_1,block2,22.0,sharneu_cheese.bmp,rouneu_cheese.bmp,639.0,1.0,left
munar2015common,4,until_response,2013,06,14,3.0,fifi,20,f,chimpanzee,1.0,58.0,88.0,09:28:00,2.0,Block_2-Block_1,block2,227.0,sharneu_chocolate.bmp,rouneu_chocolate.bmp,554.0,1.0,left
munar2015common,4,until_response,2013,06,14,4.0,alex,12,m,chimpanzee,1.0,58.0,92.0,09:44:42,2.0,Block_2-Block_1,block2,2852.0,rouneu_figureblock.bmp,sharneu_figureblock.bmp,596.0,0.0,right
munar2015common,4,until_response,2013,08,07,5.0,lome,11,m,chimpanzee,1.0,58.0,50.0,10:22:37,1.0,Block_1-Block_2,block1,5393.0,rouneu_recycle.bmp,rouneu_speaker.bmp,4055.0,0.0,left
munar2015common,4,until_response,2013,08,07,6.0,kofi,8,m,chimpanzee,1.0,58.0,88.0,09:45:24,2.0,Block_2-Block_1,block2,4030.0,sharneu_chocolate.bmp,rouneu_chocolate.bmp,712.0,0.0,left
munar2015common,4,until_response,2013,08,07,7.0,lobo,9,m,chimpanzee,1.0,58.0,77.0,10:04:07,2.0,Block_2-Block_1,block2,447.0,sharneu_briefcase.bmp,rouneu_briefcase.bmp,627.0,1.0,right
munar2015common,4,until_response,2013,09,11,8.0,kibara,9,f,gorilla,1.0,58.0,61.0,08:54:42,1.0,Block_1-Block_2,block1,402.0,sharneu_clockalarm.bmp,sharneu_vcr.bmp,974.0,1.0,left
munar2015common,4,until_response,2013,09,11,9.0,viringika,18,f,gorilla,1.0,58.0,104.0,09:12:41,2.0,Block_2-Block_1,block2,559.0,rouneu_table.bmp,sharneu_table.bmp,674.0,1.0,left
munar2015common,4,until_response,2013,06,14,1.0,gertrudia,20,f,chimpanzee,1.0,59.0,119.0,08:51:13,2.0,Block_2-Block_1,block2,1364.0,rouneu_purse2.bmp,rouneu_padlock.bmp,1237.0,1.0,right
munar2015common,4,until_response,2013,06,14,2.0,jahaga,20,f,chimpanzee,1.0,59.0,99.0,09:11:41,2.0,Block_2-Block_1,block2,1520.0,rouneu_mirrorbig.bmp,sharneu_mirrorbig.bmp,407.0,1.0,right
munar2015common,4,until_response,2013,06,14,3.0,fifi,20,f,chimpanzee,1.0,59.0,134.0,09:28:00,2.0,Block_2-Block_1,block2,1198.0,sharneu_officechair.bmp,sharneu_couch.bmp,549.0,0.0,left
munar2015common,4,until_response,2013,06,14,4.0,alex,12,m,chimpanzee,1.0,59.0,123.0,09:44:42,2.0,Block_2-Block_1,block2,181.0,rouneu_sponge.bmp,rouneu_scrubbrush.bmp,587.0,1.0,right
munar2015common,4,until_response,2013,08,07,5.0,lome,11,m,chimpanzee,1.0,59.0,13.0,10:22:37,1.0,Block_1-Block_2,block1,1561.0,rouneu_canister.bmp,sharneu_canister.bmp,654.0,0.0,left
munar2015common,4,until_response,2013,08,07,6.0,kofi,8,m,chimpanzee,1.0,59.0,117.0,09:45:24,2.0,Block_2-Block_1,block2,203.0,rouneu_nailpolish.bmp,rouneu_lipstick.bmp,746.0,0.0,left
munar2015common,4,until_response,2013,08,07,7.0,lobo,9,m,chimpanzee,1.0,59.0,138.0,10:04:07,2.0,Block_2-Block_1,block2,2049.0,sharneu_remote.bmp,sharneu_phonecordless.bmp,992.0,1.0,left
munar2015common,4,until_response,2013,09,11,8.0,kibara,9,f,gorilla,1.0,59.0,62.0,08:54:42,1.0,Block_1-Block_2,block1,3871.0,sharneu_couch.bmp,sharneu_officechair.bmp,937.0,0.0,left
munar2015common,4,until_response,2013,09,11,9.0,viringika,18,f,gorilla,1.0,59.0,103.0,09:12:41,2.0,Block_2-Block_1,block2,4403.0,rouneu_stool.bmp,sharneu_stool.bmp,717.0,0.0,left
munar2015common,4,until_response,2013,06,14,1.0,gertrudia,20,f,chimpanzee,1.0,60.0,75.0,08:51:13,2.0,Block_2-Block_1,block2,1046.0,sharneu_bench.bmp,rouneu_bench.bmp,1327.0,0.0,left
munar2015common,4,until_response,2013,06,14,2.0,jahaga,20,f,chimpanzee,1.0,60.0,110.0,09:11:41,2.0,Block_2-Block_1,block2,2059.0,rouneu_pizza.bmp,rouneu_ashtray.bmp,372.0,0.0,right
munar2015common,4,until_response,2013,06,14,3.0,fifi,20,f,chimpanzee,1.0,60.0,140.0,09:28:00,2.0,Block_2-Block_1,block2,793.0,sharneu_speaker.bmp,sharneu_recyclebin.bmp,935.0,1.0,right
munar2015common,4,until_response,2013,06,14,4.0,alex,12,m,chimpanzee,1.0,60.0,129.0,09:44:42,2.0,Block_2-Block_1,block2,1589.0,sharneu_lantern.bmp,sharneu_battery.bmp,389.0,0.0,left
munar2015common,4,until_response,2013,08,07,5.0,lome,11,m,chimpanzee,1.0,60.0,32.0,10:22:37,1.0,Block_1-Block_2,block1,489.0,sharneu_table.bmp,rouneu_table.bmp,799.0,1.0,left
munar2015common,4,until_response,2013,08,07,6.0,kofi,8,m,chimpanzee,1.0,60.0,90.0,09:45:24,2.0,Block_2-Block_1,block2,365.0,sharneu_cushion.bmp,rouneu_cushion.bmp,638.0,1.0,left
munar2015common,4,until_response,2013,08,07,7.0,lobo,9,m,chimpanzee,1.0,60.0,131.0,10:04:07,2.0,Block_2-Block_1,block2,1658.0,sharneu_pda.bmp,sharneu_calculator.bmp,742.0,0.0,right
munar2015common,4,until_response,2013,09,11,8.0,kibara,9,f,gorilla,1.0,60.0,27.0,08:54:42,1.0,Block_1-Block_2,block1,1193.0,sharneu_mirrorbig.bmp,rouneu_mirrorbig.bmp,811.0,1.0,right
munar2015common,4,until_response,2013,09,11,9.0,viringika,18,f,gorilla,1.0,60.0,122.0,09:12:41,2.0,Block_2-Block_1,block2,1979.0,rouneu_speaker.bmp,rouneu_recycle.bmp,1008.0,1.0,left
munar2015common,4,until_response,2013,06,14,1.0,gertrudia,20,f,chimpanzee,1.0,61.0,121.0,08:51:13,2.0,Block_2-Block_1,block2,508.0,rouneu_toaster.bmp,rouneu_radioantique.bmp,772.0,1.0,right
munar2015common,4,until_response,2013,06,14,2.0,jahaga,20,f,chimpanzee,1.0,61.0,81.0,09:11:41,2.0,Block_2-Block_1,block2,580.0,sharneu_bundtpan.bmp,rouneu_bundtpan.bmp,397.0,1.0,right
munar2015common,4,until_response,2013,06,14,3.0,fifi,20,f,chimpanzee,1.0,61.0,93.0,09:28:00,2.0,Block_2-Block_1,block2,1183.0,rouneu_figuretriangle.bmp,sharneu_figuretriangle.bmp,904.0,0.0,right
munar2015common,4,until_response,2013,06,14,4.0,alex,12,m,chimpanzee,1.0,61.0,121.0,09:44:42,2.0,Block_2-Block_1,block2,270.0,rouneu_toaster.bmp,rouneu_radioantique.bmp,2347.0,1.0,left
munar2015common,4,until_response,2013,08,07,5.0,lome,11,m,chimpanzee,1.0,61.0,34.0,10:22:37,1.0,Block_1-Block_2,block1,6114.0,sharneu_tree.bmp,rouneu_tree.bmp,782.0,0.0,right
munar2015common,4,until_response,2013,08,07,6.0,kofi,8,m,chimpanzee,1.0,61.0,127.0,09:45:24,2.0,Block_2-Block_1,block2,1596.0,sharneu_phone.bmp,sharneu_answering.bmp,717.0,0.0,left
munar2015common,4,until_response,2013,08,07,7.0,lobo,9,m,chimpanzee,1.0,61.0,98.0,10:04:07,2.0,Block_2-Block_1,block2,260.0,rouneu_leaf.bmp,sharneu_leaf.bmp,823.0,0.0,right
munar2015common,4,until_response,2013,09,11,8.0,kibara,9,f,gorilla,1.0,61.0,65.0,08:54:42,1.0,Block_1-Block_2,block1,1919.0,sharneu_padlock.bmp,sharneu_purse2.bmp,983.0,0.0,left
munar2015common,4,until_response,2013,09,11,9.0,viringika,18,f,gorilla,1.0,61.0,112.0,09:12:41,2.0,Block_2-Block_1,block2,2341.0,rouneu_mirror.bmp,rouneu_boxlock.bmp,598.0,1.0,left
