study_id,year,month,day,participant,age_in_years,sex,role,participant_2,age_in_years_2,sex_2,role_2,species,dyad,dyad_sex,phase,session,trial,condition,leverage,side_focal_participant,side_partner,individual_left,individual_right,1st_access,focal_participant_decision,partner_decision,focal_participant_lat_opendoor,partner_lat_opendoor,focal_participant_lat_doortopull,partner_lat_doortopull,focal_participant_success,partner_success,lev_underst_full,lev_underst_gen,focal_participant_lat_doorandpull,parter_lat_doorandpull,focal_participant_latency_total,partner_latency_total,soc_choice,cox1_freechoice_focal,cox2_freechoicepull,cox3_freechoice
sanchez2018chimpanzees,2017,5,29,tai,14.0,f,focal_participant,lobo,13.0,m,partner,chimpanzee,tai_lobo,mix,1,1,1,test,0,l,r,tai,lobo,subject,soc,get_soc,0.72,0.48,1.92,,yes,yes,no,no,2.64,,2.64,0.48,0.0,yes,yes,
sanchez2018chimpanzees,2017,5,29,tai,14.0,f,focal_participant,lobo,13.0,m,partner,chimpanzee,tai_lobo,mix,1,1,2,test,4,l,r,tai,lobo,subject,nonsoc,no,0.8,,,,yes,no,,,,,0.8,,1.0,yes,,
sanchez2018chimpanzees,2017,5,29,tai,14.0,f,focal_participant,lobo,13.0,m,partner,chimpanzee,tai_lobo,mix,1,1,3,test,2,l,r,tai,lobo,subject,nonsoc,soc,0.88,2.4,,0.92,yes,yes,no,no,,3.32,0.88,3.32,1.0,yes,,
sanchez2018chimpanzees,2017,5,29,tai,14.0,f,focal_participant,,,,,chimpanzee,tai_lobo,mix,1,1,4,control,0,l,,tai,,subject,soc,,0.92,,2,,yes,,,,2.92,,2.92,,0.0,yes,yes,
sanchez2018chimpanzees,2017,5,29,tai,14.0,f,focal_participant,,,,,chimpanzee,tai_lobo,mix,1,1,5,control,2,l,,tai,,subject,soc,,7.52,,1.08,,yes,,,,8.6,,8.6,,0.0,yes,yes,
sanchez2018chimpanzees,2017,5,29,tai,14.0,f,focal_participant,,,,,chimpanzee,tai_lobo,mix,1,1,6,control,4,l,,tai,,subject,nonsoc,,9.64,,,,yes,,,,,,9.64,,1.0,yes,,
sanchez2018chimpanzees,2017,5,30,,,,,lobo,13.0,m,partner,chimpanzee,tai_lobo,mix,1,2,1,control,0,,l,lobo,,partner,,soc,,2.04,,2.16,,yes,,,,4.2,,4.2,,,,yes
sanchez2018chimpanzees,2017,5,30,,,,,lobo,13.0,m,partner,chimpanzee,tai_lobo,mix,1,2,2,control,4,,l,lobo,,partner,,soc,,0.4,,3.8,,yes,,,,4.2,,4.2,,,,yes
sanchez2018chimpanzees,2017,5,30,,,,,lobo,13.0,m,partner,chimpanzee,tai_lobo,mix,1,2,3,control,2,,l,lobo,,partner,,soc,,4.44,,6.64,,yes,,,,11.08,,11.08,,,,yes
sanchez2018chimpanzees,2017,5,30,tai,14.0,f,focal_participant,lobo,13.0,m,partner,chimpanzee,tai_lobo,mix,1,2,4,test,2,r,l,lobo,tai,partner,nonsoc,no,3.08,20,,,yes,no,,,,,3.08,20,,,,no
sanchez2018chimpanzees,2017,5,30,tai,14.0,f,focal_participant,lobo,13.0,m,partner,chimpanzee,tai_lobo,mix,1,2,5,test,4,r,l,lobo,tai,partner,nonsoc,nonsoc,1.72,7.88,,,yes,no,,,,,1.72,7.88,,,,
sanchez2018chimpanzees,2017,5,30,tai,14.0,f,focal_participant,lobo,13.0,m,partner,chimpanzee,tai_lobo,mix,1,2,6,test,0,r,l,lobo,tai,partner,soc,get_soc,1.68,1.56,1.92,,yes,yes,,,3.6,,3.6,1.56,,,,no
sanchez2018chimpanzees,2017,6,1,tai,14.0,f,focal_participant,,,,,chimpanzee,tai_lobo,mix,1,3,1,control,4,l,,tai,,subject,nonsoc,,0.8,,,,yes,,,,,,0.8,,1.0,yes,,
sanchez2018chimpanzees,2017,6,1,tai,14.0,f,focal_participant,,,,,chimpanzee,tai_lobo,mix,1,3,2,control,2,l,,tai,,subject,nonsoc,,3.96,,,,yes,,,,,,3.96,,1.0,yes,,
sanchez2018chimpanzees,2017,6,1,tai,14.0,f,focal_participant,,,,,chimpanzee,tai_lobo,mix,1,3,3,control,0,l,,tai,,subject,soc,,0.96,,0.96,,yes,,,,1.92,,1.92,,0.0,yes,yes,
sanchez2018chimpanzees,2017,6,1,tai,14.0,f,focal_participant,lobo,13.0,m,partner,chimpanzee,tai_lobo,mix,1,3,4,test,2,l,r,tai,lobo,subject,nonsoc,soc,2.8,0.64,,1.24,yes,yes,no,no,,1.88,2.8,1.88,1.0,yes,,
sanchez2018chimpanzees,2017,6,1,tai,14.0,f,focal_participant,lobo,13.0,m,partner,chimpanzee,tai_lobo,mix,1,3,5,test,4,l,r,tai,lobo,subject,nonsoc,soc,1.04,2.72,,1.2,yes,yes,,,,3.92,1.04,3.92,1.0,yes,,
sanchez2018chimpanzees,2017,6,1,tai,14.0,f,focal_participant,lobo,13.0,m,partner,chimpanzee,tai_lobo,mix,1,3,6,test,0,l,r,tai,lobo,subject,soc,get_soc,1.24,0.92,1.4,,yes,yes,no,no,2.64,,2.64,0.92,0.0,yes,yes,
sanchez2018chimpanzees,2017,6,2,tai,14.0,f,focal_participant,lobo,13.0,m,partner,chimpanzee,tai_lobo,mix,1,4,1,test,2,r,l,lobo,tai,partner,nonsoc,soc,2.28,17.68,,,yes,no,,,,,2.28,17.68,,,,no
sanchez2018chimpanzees,2017,6,2,tai,14.0,f,focal_participant,lobo,13.0,m,partner,chimpanzee,tai_lobo,mix,1,4,2,test,4,r,l,lobo,tai,partner,nonsoc,soc,1.76,7.08,,,yes,no,,,,,1.76,7.08,,,,no
sanchez2018chimpanzees,2017,6,2,tai,14.0,f,focal_participant,lobo,13.0,m,partner,chimpanzee,tai_lobo,mix,1,4,3,test,0,r,l,lobo,tai,partner,soc,get_soc,1.28,20.64,6.12,,yes,yes,,,7.4,,7.4,20.64,,,,no
sanchez2018chimpanzees,2017,6,2,,,,,lobo,13.0,m,partner,chimpanzee,tai_lobo,mix,1,4,4,control,0,,l,lobo,,partner,,soc,,2.8,,3.12,,yes,,,,5.92,,5.92,,,,yes
sanchez2018chimpanzees,2017,6,2,,,,,lobo,13.0,m,partner,chimpanzee,tai_lobo,mix,1,4,5,control,4,,l,lobo,,partner,,soc,,0.48,,1,,yes,,,,1.48,,1.48,,,,yes
sanchez2018chimpanzees,2017,6,2,,,,,lobo,13.0,m,partner,chimpanzee,tai_lobo,mix,1,4,6,control,2,,l,lobo,,partner,,soc,,1.4,,2.72,,yes,,,,4.12,,4.12,,,,yes
sanchez2018chimpanzees,2017,6,4,tai,14.0,f,focal_participant,lobo,13.0,m,partner,chimpanzee,tai_lobo,mix,1,5,1,test,2,r,l,lobo,tai,subject,nonsoc,soc,0.56,0.64,,1.76,yes,yes,no,no,,2.4,0.56,2.4,1.0,yes,,
sanchez2018chimpanzees,2017,6,4,tai,14.0,f,focal_participant,lobo,13.0,m,partner,chimpanzee,tai_lobo,mix,1,5,2,test,4,r,l,lobo,tai,subject,nonsoc,soc,0.88,0.6,,6.48,yes,yes,,,,7.08,0.88,7.08,1.0,yes,,
sanchez2018chimpanzees,2017,6,4,tai,14.0,f,focal_participant,lobo,13.0,m,partner,chimpanzee,tai_lobo,mix,1,5,3,test,0,r,l,lobo,tai,subject,soc,get_soc,0.68,0.44,1.6,,yes,yes,no,no,2.28,,2.28,0.44,0.0,yes,yes,
sanchez2018chimpanzees,2017,6,4,tai,14.0,f,focal_participant,,,,,chimpanzee,tai_lobo,mix,1,5,4,control,0,r,,,tai,subject,soc,,0.84,,3.32,,yes,,,,4.16,,4.16,,0.0,yes,yes,
sanchez2018chimpanzees,2017,6,4,tai,14.0,f,focal_participant,,,,,chimpanzee,tai_lobo,mix,1,5,5,control,4,r,,,tai,subject,nonsoc,,2.36,,,,yes,,,,,,2.36,,1.0,yes,,
sanchez2018chimpanzees,2017,6,4,tai,14.0,f,focal_participant,,,,,chimpanzee,tai_lobo,mix,1,5,6,control,2,r,,,tai,subject,nonsoc,,1.92,,,,yes,,,,,,1.92,,1.0,yes,,
sanchez2018chimpanzees,2017,6,6,,,,,lobo,13.0,m,partner,chimpanzee,tai_lobo,mix,1,6,1,control,2,,r,,lobo,partner,,soc,,1.44,,6.32,,yes,,,,7.76,,7.76,,,,yes
sanchez2018chimpanzees,2017,6,6,,,,,lobo,13.0,m,partner,chimpanzee,tai_lobo,mix,1,6,2,control,4,,r,,lobo,partner,,soc,,3.16,,3.44,,yes,,,,6.6,,6.6,,,,yes
sanchez2018chimpanzees,2017,6,6,,,,,lobo,13.0,m,partner,chimpanzee,tai_lobo,mix,1,6,3,control,0,,r,,lobo,partner,,soc,,1.76,,1.96,,yes,,,,3.72,,3.72,,,,yes
sanchez2018chimpanzees,2017,6,6,tai,14.0,f,focal_participant,lobo,13.0,m,partner,chimpanzee,tai_lobo,mix,1,6,4,test,2,l,r,tai,lobo,partner,nonsoc,soc,1.6,3.76,,11.16,yes,yes,,,,14.92,1.6,14.92,,,,no
sanchez2018chimpanzees,2017,6,6,tai,14.0,f,focal_participant,lobo,13.0,m,partner,chimpanzee,tai_lobo,mix,1,6,5,test,0,l,r,tai,lobo,partner,get_soc,soc,10.84,2.04,,4.04,yes,yes,,,,6.08,10.84,6.08,,,,yes
sanchez2018chimpanzees,2017,6,6,tai,14.0,f,focal_participant,lobo,13.0,m,partner,chimpanzee,tai_lobo,mix,1,6,6,test,4,l,r,tai,lobo,partner,nonsoc,soc,1.36,1.16,,2.28,yes,yes,,,,3.44,1.36,3.44,,,,yes
sanchez2018chimpanzees,2017,6,7,tai,14.0,f,focal_participant,,,,,chimpanzee,tai_lobo,mix,1,7,1,control,0,r,,,tai,subject,soc,,2.28,,1.36,,yes,,,,3.64,,3.64,,0.0,yes,yes,
sanchez2018chimpanzees,2017,6,7,tai,14.0,f,focal_participant,,,,,chimpanzee,tai_lobo,mix,1,7,2,control,4,r,,,tai,subject,nonsoc,,1.2,,,,yes,,,,,,1.2,,1.0,yes,,
sanchez2018chimpanzees,2017,6,7,tai,14.0,f,focal_participant,,,,,chimpanzee,tai_lobo,mix,1,7,3,control,2,r,,,tai,subject,nonsoc,,1.56,,,,yes,,,,,,1.56,,1.0,yes,,
sanchez2018chimpanzees,2017,6,7,tai,14.0,f,focal_participant,lobo,13.0,m,partner,chimpanzee,tai_lobo,mix,1,7,4,test,2,r,l,lobo,tai,subject,nonsoc,soc,0.8,2.48,,1.68,yes,yes,no,no,,4.16,0.8,4.16,1.0,yes,,
sanchez2018chimpanzees,2017,6,7,tai,14.0,f,focal_participant,lobo,13.0,m,partner,chimpanzee,tai_lobo,mix,1,7,5,test,0,r,l,lobo,tai,subject,soc,get_soc,1.08,0.52,3.24,,yes,yes,no,no,4.32,,4.32,0.52,0.0,yes,yes,
sanchez2018chimpanzees,2017,6,7,tai,14.0,f,focal_participant,lobo,13.0,m,partner,chimpanzee,tai_lobo,mix,1,7,6,test,4,r,l,lobo,tai,subject,nonsoc,soc,0.8,1,,2,yes,yes,,,,3,0.8,3,1.0,yes,,
sanchez2018chimpanzees,2017,6,8,tai,14.0,f,focal_participant,lobo,13.0,m,partner,chimpanzee,tai_lobo,mix,1,8,1,test,2,l,r,tai,lobo,partner,nonsoc,soc,1.84,6.12,,7.76,yes,yes,,,,13.88,1.84,13.88,,,,no
sanchez2018chimpanzees,2017,6,8,tai,14.0,f,focal_participant,lobo,13.0,m,partner,chimpanzee,tai_lobo,mix,1,8,2,test,0,l,r,tai,lobo,partner,get_soc,soc,1.48,5.72,,4.72,yes,yes,,,,10.44,1.48,10.44,,,,yes
sanchez2018chimpanzees,2017,6,8,tai,14.0,f,focal_participant,lobo,13.0,m,partner,chimpanzee,tai_lobo,mix,1,8,3,test,4,l,r,tai,lobo,partner,nonsoc,soc,14.04,2,,7.64,yes,yes,,,,9.64,14.04,9.64,,,,yes
sanchez2018chimpanzees,2017,6,8,,,,,lobo,13.0,m,partner,chimpanzee,tai_lobo,mix,1,8,4,control,0,,r,,lobo,partner,,soc,,2.08,,8.84,,yes,,,,10.92,,10.92,,,,yes
sanchez2018chimpanzees,2017,6,8,,,,,lobo,13.0,m,partner,chimpanzee,tai_lobo,mix,1,8,5,control,2,,r,,lobo,partner,,soc,,2.2,,1.6,,yes,,,,3.8,,3.8,,,,yes
sanchez2018chimpanzees,2017,6,8,,,,,lobo,13.0,m,partner,chimpanzee,tai_lobo,mix,1,8,6,control,4,,r,,lobo,partner,,soc,,0.64,,0.96,,yes,,,,1.6,,1.6,,,,yes
sanchez2018chimpanzees,2017,6,8,frodo,23.0,m,focal_participant,bangolo,7.0,m,partner,chimpanzee,frodo_bangolo,male,1,1,1,test,4,l,r,frodo,bangolo,partner,get_soc,soc,1.52,0.64,,2.96,yes,yes,,,,3.6,1.52,3.6,,,,yes
sanchez2018chimpanzees,2017,6,8,frodo,23.0,m,focal_participant,bangolo,7.0,m,partner,chimpanzee,frodo_bangolo,male,1,1,2,test,0,l,r,frodo,bangolo,partner,get_soc,soc,1.12,1.2,,3.32,yes,yes,,,,4.52,1.12,4.52,,,,yes
sanchez2018chimpanzees,2017,6,8,frodo,23.0,m,focal_participant,bangolo,7.0,m,partner,chimpanzee,frodo_bangolo,male,1,1,3,test,2,l,r,frodo,bangolo,partner,get_soc,soc,1,0.96,,1.88,yes,yes,,,,2.84,1,2.84,,,,yes
sanchez2018chimpanzees,2017,6,8,,,,,bangolo,7.0,m,partner,chimpanzee,frodo_bangolo,male,1,1,4,control,2,,r,,bangolo,partner,,soc,,6.4,,9.76,,yes,,,,16.16,,16.16,,,,yes
sanchez2018chimpanzees,2017,6,8,,,,,bangolo,7.0,m,partner,chimpanzee,frodo_bangolo,male,1,1,5,control,0,,r,,bangolo,partner,,soc,,2.12,,3.48,,yes,,,,5.6,,5.6,,,,yes
sanchez2018chimpanzees,2017,6,8,,,,,bangolo,7.0,m,partner,chimpanzee,frodo_bangolo,male,1,1,6,control,4,,r,,bangolo,partner,,soc,,1.12,,2.96,,yes,,,,4.08,,4.08,,,,yes
sanchez2018chimpanzees,2017,6,9,lobo,13.0,m,focal_participant,tai,14.0,f,partner,chimpanzee,tai_lobo,mix,1,1,1,test,2,r,l,tai,lobo,partner,get_soc,soc,0.96,0.96,,3.76,yes,yes,,,,4.72,0.96,4.72,,,,yes
sanchez2018chimpanzees,2017,6,9,lobo,13.0,m,focal_participant,tai,14.0,f,partner,chimpanzee,tai_lobo,mix,1,1,2,test,4,r,l,tai,lobo,partner,nonsoc,soc,1.12,1.36,,3.56,yes,yes,,,,4.92,1.12,4.92,,,,yes
sanchez2018chimpanzees,2017,6,9,lobo,13.0,m,focal_participant,tai,14.0,f,partner,chimpanzee,tai_lobo,mix,1,1,3,test,0,r,l,tai,lobo,partner,get_soc,soc,1.68,0.76,,1.44,yes,yes,,,,2.2,1.68,2.2,,,,yes
sanchez2018chimpanzees,2017,6,9,,,,,tai,14.0,f,partner,chimpanzee,tai_lobo,mix,1,1,4,control,0,,l,tai,,partner,,soc,,1.16,,1.08,,yes,,,,2.24,,2.24,,,,yes
sanchez2018chimpanzees,2017,6,9,,,,,tai,14.0,f,partner,chimpanzee,tai_lobo,mix,1,1,5,control,4,,l,tai,,partner,,soc,,1.04,,0.96,,yes,,,,2,,2,,,,yes
sanchez2018chimpanzees,2017,6,9,,,,,tai,14.0,f,partner,chimpanzee,tai_lobo,mix,1,1,6,control,2,,l,tai,,partner,,soc,,1.32,,0.96,,yes,,,,2.28,,2.28,,,,yes
sanchez2018chimpanzees,2017,6,9,frodo,23.0,m,focal_participant,,,,,chimpanzee,frodo_bangolo,male,1,2,1,control,4,r,,,frodo,subject,nonsoc,,2,,,,yes,,,,,,2,,1.0,yes,,
sanchez2018chimpanzees,2017,6,9,frodo,23.0,m,focal_participant,,,,,chimpanzee,frodo_bangolo,male,1,2,2,control,0,r,,,frodo,subject,soc,,2.04,,7.32,,yes,,,,9.36,,9.36,,0.0,yes,yes,
sanchez2018chimpanzees,2017,6,9,frodo,23.0,m,focal_participant,,,,,chimpanzee,frodo_bangolo,male,1,2,3,control,2,r,,,frodo,subject,soc,,5.08,,8.96,,yes,,,,14.04,,14.04,,0.0,yes,yes,
sanchez2018chimpanzees,2017,6,9,frodo,23.0,m,focal_participant,bangolo,7.0,m,partner,chimpanzee,frodo_bangolo,male,1,2,4,test,4,r,l,bangolo,frodo,subject,nonsoc,soc,1.96,0.92,,1.56,yes,yes,,,,2.48,1.96,2.48,1.0,yes,,
sanchez2018chimpanzees,2017,6,9,frodo,23.0,m,focal_participant,bangolo,7.0,m,partner,chimpanzee,frodo_bangolo,male,1,2,5,test,0,r,l,bangolo,frodo,subject,get_soc,soc,2.28,0.04,,1.92,yes,yes,no,yes,,1.96,2.28,1.96,0.0,yes,no,
sanchez2018chimpanzees,2017,6,9,frodo,23.0,m,focal_participant,bangolo,7.0,m,partner,chimpanzee,frodo_bangolo,male,1,2,6,test,2,r,l,bangolo,frodo,subject,get_soc,soc,2.84,1.6,,2.52,yes,yes,no,yes,,4.12,2.84,4.12,0.0,yes,no,
sanchez2018chimpanzees,2017,6,12,lobo,13.0,m,focal_participant,,,,,chimpanzee,tai_lobo,mix,1,2,1,control,0,l,,lobo,,subject,soc,,2.32,,3.56,,yes,,,,5.88,,5.88,,0.0,yes,yes,
sanchez2018chimpanzees,2017,6,12,lobo,13.0,m,focal_participant,,,,,chimpanzee,tai_lobo,mix,1,2,2,control,4,l,,lobo,,subject,nonsoc,,0.92,,,,yes,,,,,,0.92,,1.0,yes,,
sanchez2018chimpanzees,2017,6,12,lobo,13.0,m,focal_participant,,,,,chimpanzee,tai_lobo,mix,1,2,3,control,2,l,,lobo,,subject,nonsoc,,7.72,,,,yes,,,,,,7.72,,1.0,yes,,
sanchez2018chimpanzees,2017,6,12,lobo,13.0,m,focal_participant,tai,14.0,f,partner,chimpanzee,tai_lobo,mix,1,2,4,test,2,l,r,lobo,tai,subject,nonsoc,soc,5.24,2.44,,3.2,yes,yes,no,no,,5.64,5.24,5.64,1.0,yes,,
sanchez2018chimpanzees,2017,6,12,lobo,13.0,m,focal_participant,tai,14.0,f,partner,chimpanzee,tai_lobo,mix,1,2,5,test,0,l,r,lobo,tai,subject,get_soc,soc,9.12,2.16,,1.68,yes,yes,no,yes,,3.84,9.12,3.84,0.0,yes,no,
sanchez2018chimpanzees,2017,6,12,lobo,13.0,m,focal_participant,tai,14.0,f,partner,chimpanzee,tai_lobo,mix,1,2,6,test,4,l,r,lobo,tai,subject,nonsoc,soc,1.84,2.64,,1.08,yes,yes,,,,3.72,1.84,3.72,1.0,yes,,
sanchez2018chimpanzees,2017,6,12,,,,,bangolo,7.0,m,partner,chimpanzee,frodo_bangolo,male,1,3,1,control,0,,r,,bangolo,partner,,soc,,0.8,,1.88,,yes,,,,2.68,,2.68,,,,yes
sanchez2018chimpanzees,2017,6,12,,,,,bangolo,7.0,m,partner,chimpanzee,frodo_bangolo,male,1,3,2,control,2,,r,,bangolo,partner,,soc,,1.88,,8.76,,yes,,,,10.64,,10.64,,,,yes
sanchez2018chimpanzees,2017,6,12,,,,,bangolo,7.0,m,partner,chimpanzee,frodo_bangolo,male,1,3,3,control,4,,r,,bangolo,partner,,soc,,5.64,,1.84,,yes,,,,7.48,,7.48,,,,yes
sanchez2018chimpanzees,2017,6,12,frodo,23.0,m,focal_participant,bangolo,7.0,m,partner,chimpanzee,frodo_bangolo,male,1,3,4,test,0,l,r,frodo,bangolo,partner,soc,soc,4.16,1.8,2.8,1.36,yes,yes,,,6.96,3.16,6.96,3.16,,,,yes
sanchez2018chimpanzees,2017,6,12,frodo,23.0,m,focal_participant,bangolo,7.0,m,partner,chimpanzee,frodo_bangolo,male,1,3,5,test,2,l,r,frodo,bangolo,partner,soc,soc,0.88,2.48,,2.76,no,no,,,,5.24,0.88,5.24,,,,yes
sanchez2018chimpanzees,2017,6,12,frodo,23.0,m,focal_participant,bangolo,7.0,m,partner,chimpanzee,frodo_bangolo,male,1,3,6,test,4,l,r,frodo,bangolo,partner,get_soc,soc,2.72,0.88,,1.44,yes,yes,,,,2.32,2.72,2.32,,,,yes
sanchez2018chimpanzees,2017,6,13,,,,,tai,14.0,f,partner,chimpanzee,tai_lobo,mix,1,3,1,control,2,,l,tai,,partner,,soc,,0.72,,3.08,,yes,,,,3.8,,3.8,,,,yes
sanchez2018chimpanzees,2017,6,13,,,,,tai,14.0,f,partner,chimpanzee,tai_lobo,mix,1,3,2,control,4,,l,tai,,partner,,soc,,2.84,,3.72,,yes,,,,6.56,,6.56,,,,yes
sanchez2018chimpanzees,2017,6,13,,,,,tai,14.0,f,partner,chimpanzee,tai_lobo,mix,1,3,3,control,0,,l,tai,,partner,,soc,,0.84,,1.2,,yes,,,,2.04,,2.04,,,,yes
sanchez2018chimpanzees,2017,6,13,lobo,13.0,m,focal_participant,tai,14.0,f,partner,chimpanzee,tai_lobo,mix,1,3,4,test,2,r,l,tai,lobo,partner,get_soc,soc,1.24,0.84,,1.8,yes,yes,,,,2.64,1.24,2.64,,,,yes
sanchez2018chimpanzees,2017,6,13,lobo,13.0,m,focal_participant,tai,14.0,f,partner,chimpanzee,tai_lobo,mix,1,3,5,test,0,r,l,tai,lobo,partner,get_soc,soc,0.6,0.64,,2.12,yes,yes,,,,2.76,0.6,2.76,,,,yes
sanchez2018chimpanzees,2017,6,13,lobo,13.0,m,focal_participant,tai,14.0,f,partner,chimpanzee,tai_lobo,mix,1,3,6,test,4,r,l,tai,lobo,partner,get_soc,soc,3.24,1,,2.04,yes,yes,,,,3.04,3.24,3.04,,,,yes
sanchez2018chimpanzees,2017,6,14,lobo,13.0,m,focal_participant,tai,14.0,f,partner,chimpanzee,tai_lobo,mix,1,4,1,test,0,l,r,lobo,tai,subject,soc,get_soc,2.48,2.04,2.56,,yes,yes,no,no,5.04,,5.04,2.04,0.0,yes,yes,
sanchez2018chimpanzees,2017,6,14,lobo,13.0,m,focal_participant,tai,14.0,f,partner,chimpanzee,tai_lobo,mix,1,4,2,test,4,l,r,lobo,tai,subject,nonsoc,soc,0.84,1.88,,1.12,yes,yes,,,,3,0.84,3,1.0,yes,,
sanchez2018chimpanzees,2017,6,14,lobo,13.0,m,focal_participant,tai,14.0,f,partner,chimpanzee,tai_lobo,mix,1,4,3,test,2,l,r,lobo,tai,subject,nonsoc,soc,0.8,2.12,,1.72,yes,yes,no,no,,3.84,0.8,3.84,1.0,yes,,
sanchez2018chimpanzees,2017,6,14,lobo,13.0,m,focal_participant,,,,,chimpanzee,tai_lobo,mix,1,4,4,control,0,l,,lobo,,subject,soc,,1.36,,5.96,,yes,,,,7.32,,7.32,,0.0,yes,yes,
sanchez2018chimpanzees,2017,6,14,lobo,13.0,m,focal_participant,,,,,chimpanzee,tai_lobo,mix,1,4,5,control,2,l,,lobo,,subject,nonsoc,,0.56,,,,yes,,,,,,0.56,,1.0,yes,,
sanchez2018chimpanzees,2017,6,14,lobo,13.0,m,focal_participant,,,,,chimpanzee,tai_lobo,mix,1,4,6,control,4,l,,lobo,,subject,nonsoc,,1,,,,yes,,,,,,1,,1.0,yes,,
sanchez2018chimpanzees,2017,6,14,frodo,23.0,m,focal_participant,bangolo,7.0,m,partner,chimpanzee,frodo_bangolo,male,1,4,1,test,0,r,l,bangolo,frodo,subject,get_soc,soc,17.72,2.08,,3.08,yes,yes,yes,yes,,5.16,17.72,5.16,0.0,no,no,
sanchez2018chimpanzees,2017,6,14,frodo,23.0,m,focal_participant,bangolo,7.0,m,partner,chimpanzee,frodo_bangolo,male,1,4,2,test,4,r,l,bangolo,frodo,subject,nonsoc,soc,0.72,2.92,,7.52,yes,yes,,,,10.44,0.72,10.44,1.0,yes,,
sanchez2018chimpanzees,2017,6,14,frodo,23.0,m,focal_participant,bangolo,7.0,m,partner,chimpanzee,frodo_bangolo,male,1,4,3,test,2,r,l,bangolo,frodo,subject,nonsoc,soc,1.76,1.64,,6.6,yes,yes,no,no,,8.24,1.76,8.24,1.0,yes,,
sanchez2018chimpanzees,2017,6,14,frodo,23.0,m,focal_participant,,,,,chimpanzee,frodo_bangolo,male,1,4,4,control,0,r,,,frodo,subject,soc,,2.96,,2.8,,yes,,,,5.76,,5.76,,0.0,yes,yes,
sanchez2018chimpanzees,2017,6,14,frodo,23.0,m,focal_participant,,,,,chimpanzee,frodo_bangolo,male,1,4,5,control,2,r,,,frodo,subject,soc,,0.88,,3,,yes,,,,3.88,,3.88,,0.0,yes,yes,
sanchez2018chimpanzees,2017,6,14,frodo,23.0,m,focal_participant,,,,,chimpanzee,frodo_bangolo,male,1,4,6,control,4,r,,,frodo,subject,nonsoc,,1.52,,,,yes,,,,,,1.52,,1.0,yes,,
sanchez2018chimpanzees,2017,6,21,lobo,13.0,m,focal_participant,tai,14.0,f,partner,chimpanzee,tai_lobo,mix,1,5,1,test,2,l,r,lobo,tai,partner,soc,soc,nd,nd,nd,nd,yes,yes,,,,,,,,,,
sanchez2018chimpanzees,2017,6,21,lobo,13.0,m,focal_participant,tai,14.0,f,partner,chimpanzee,tai_lobo,mix,1,5,2,test,0,l,r,lobo,tai,partner,get_soc,soc,nd,nd,nd,nd,yes,yes,,,,,,,,,,
sanchez2018chimpanzees,2017,6,21,lobo,13.0,m,focal_participant,tai,14.0,f,partner,chimpanzee,tai_lobo,mix,1,5,3,test,4,l,r,lobo,tai,partner,nonsoc,soc,nd,nd,nd,nd,yes,yes,,,,,,,,,,
sanchez2018chimpanzees,2017,6,21,,,,,tai,14.0,f,partner,chimpanzee,tai_lobo,mix,1,5,4,control,0,,r,,tai,partner,,soc,nd,nd,nd,nd,,yes,,,,,,,,,,
sanchez2018chimpanzees,2017,6,21,,,,,tai,14.0,f,partner,chimpanzee,tai_lobo,mix,1,5,5,control,2,,r,,tai,partner,,soc,nd,nd,nd,nd,,yes,,,,,,,,,,
sanchez2018chimpanzees,2017,6,21,,,,,tai,14.0,f,partner,chimpanzee,tai_lobo,mix,1,5,6,control,4,,r,,tai,partner,,soc,nd,nd,nd,nd,,yes,,,,,,,,,,
sanchez2018chimpanzees,2017,6,21,frodo,23.0,m,focal_participant,bangolo,7.0,m,partner,chimpanzee,frodo_bangolo,male,1,5,1,test,0,r,l,bangolo,frodo,partner,get_soc,soc,0.48,1.04,,1.16,yes,yes,,,,2.2,0.48,2.2,,,,yes
sanchez2018chimpanzees,2017,6,21,frodo,23.0,m,focal_participant,bangolo,7.0,m,partner,chimpanzee,frodo_bangolo,male,1,5,2,test,4,r,l,bangolo,frodo,partner,nonsoc,soc,1.52,1.92,,1.28,yes,yes,,,,3.2,1.52,3.2,,,,yes
sanchez2018chimpanzees,2017,6,21,frodo,23.0,m,focal_participant,bangolo,7.0,m,partner,chimpanzee,frodo_bangolo,male,1,5,3,test,2,r,l,bangolo,frodo,partner,get_soc,soc,0.72,0.48,,3.8,yes,yes,,,,4.28,0.72,4.28,,,,yes
sanchez2018chimpanzees,2017,6,21,,,,,bangolo,7.0,m,partner,chimpanzee,frodo_bangolo,male,1,5,4,control,4,,l,bangolo,,partner,,soc,,0.12,,1.16,,yes,,,,1.28,,1.28,,,,yes
sanchez2018chimpanzees,2017,6,21,,,,,bangolo,7.0,m,partner,chimpanzee,frodo_bangolo,male,1,5,5,control,0,,l,bangolo,,partner,,soc,,0.68,,2.84,,yes,,,,3.52,,3.52,,,,yes
sanchez2018chimpanzees,2017,6,21,,,,,bangolo,7.0,m,partner,chimpanzee,frodo_bangolo,male,1,5,6,control,2,,l,bangolo,,partner,,soc,,1.44,,5.2,,yes,,,,6.64,,6.64,,,,yes
sanchez2018chimpanzees,2017,6,23,lobo,13.0,m,focal_participant,,,,,chimpanzee,tai_lobo,mix,1,6,1,control,4,r,,,lobo,subject,nonsoc,,3.16,,,,yes,,,,,,3.16,,1.0,yes,,
sanchez2018chimpanzees,2017,6,23,lobo,13.0,m,focal_participant,,,,,chimpanzee,tai_lobo,mix,1,6,2,control,2,r,,,lobo,subject,soc,,5.2,,2.64,,yes,,,,7.84,,7.84,,0.0,yes,yes,
sanchez2018chimpanzees,2017,6,23,lobo,13.0,m,focal_participant,,,,,chimpanzee,tai_lobo,mix,1,6,3,control,0,r,,,lobo,subject,soc,,5.04,,1.44,,yes,,,,6.48,,6.48,,0.0,yes,yes,
sanchez2018chimpanzees,2017,6,23,lobo,13.0,m,focal_participant,tai,14.0,f,partner,chimpanzee,tai_lobo,mix,1,6,4,test,2,r,l,tai,lobo,subject,nonsoc,soc,4.48,0.6,,1.84,yes,yes,no,no,,2.44,4.48,2.44,1.0,yes,,
sanchez2018chimpanzees,2017,6,23,lobo,13.0,m,focal_participant,tai,14.0,f,partner,chimpanzee,tai_lobo,mix,1,6,5,test,4,r,l,tai,lobo,subject,nonsoc,soc,1.48,1.48,,1.2,yes,yes,,,,2.68,1.48,2.68,1.0,yes,,
sanchez2018chimpanzees,2017,6,23,lobo,13.0,m,focal_participant,tai,14.0,f,partner,chimpanzee,tai_lobo,mix,1,6,6,test,0,r,l,tai,lobo,subject,soc,get_soc,4.68,0.76,1,,yes,yes,no,no,5.68,,5.68,0.76,0.0,yes,yes,
sanchez2018chimpanzees,2017,6,23,frodo,23.0,m,focal_participant,,,,,chimpanzee,frodo_bangolo,male,1,6,1,control,4,l,,frodo,,subject,nonsoc,,1.48,,,,yes,,,,,,1.48,,1.0,yes,,
sanchez2018chimpanzees,2017,6,23,frodo,23.0,m,focal_participant,,,,,chimpanzee,frodo_bangolo,male,1,6,2,control,2,l,,frodo,,subject,nonsoc,,1.32,,,,yes,,,,,,1.32,,1.0,yes,,
sanchez2018chimpanzees,2017,6,23,frodo,23.0,m,focal_participant,,,,,chimpanzee,frodo_bangolo,male,1,6,3,control,0,l,,frodo,,subject,soc,,1.6,,2.04,,yes,,,,3.64,,3.64,,0.0,yes,yes,
sanchez2018chimpanzees,2017,6,23,frodo,23.0,m,focal_participant,bangolo,7.0,m,partner,chimpanzee,frodo_bangolo,male,1,6,4,test,2,l,r,frodo,bangolo,subject,nonsoc,soc,1.64,1.72,,6.72,yes,yes,no,no,,8.44,1.64,8.44,1.0,yes,,
sanchez2018chimpanzees,2017,6,23,frodo,23.0,m,focal_participant,bangolo,7.0,m,partner,chimpanzee,frodo_bangolo,male,1,6,5,test,4,l,r,frodo,bangolo,subject,nonsoc,soc,1.2,1.96,,2.84,yes,no,,,,4.8,1.2,4.8,1.0,yes,,
sanchez2018chimpanzees,2017,6,23,frodo,23.0,m,focal_participant,bangolo,7.0,m,partner,chimpanzee,frodo_bangolo,male,1,6,6,test,0,l,r,frodo,bangolo,subject,get_soc,soc,17.84,1.84,,2.88,yes,yes,yes,yes,,4.72,17.84,4.72,0.0,no,no,
sanchez2018chimpanzees,2017,6,25,,,,,tai,14.0,f,partner,chimpanzee,tai_lobo,mix,1,7,1,control,2,,r,,tai,partner,,soc,,1.16,,2.36,,yes,,,,3.52,,3.52,,,,yes
sanchez2018chimpanzees,2017,6,25,,,,,tai,14.0,f,partner,chimpanzee,tai_lobo,mix,1,7,2,control,4,,r,,tai,partner,,soc,,0.72,,1.92,,yes,,,,2.64,,2.64,,,,yes
sanchez2018chimpanzees,2017,6,25,,,,,tai,14.0,f,partner,chimpanzee,tai_lobo,mix,1,7,3,control,0,,r,,tai,partner,,soc,,0.76,,2.32,,yes,,,,3.08,,3.08,,,,yes
sanchez2018chimpanzees,2017,6,25,lobo,13.0,m,focal_participant,tai,14.0,f,partner,chimpanzee,tai_lobo,mix,1,7,4,test,2,l,r,lobo,tai,partner,get_soc,soc,6.28,1.12,,7,yes,yes,,,,8.12,6.28,8.12,,,,yes
sanchez2018chimpanzees,2017,6,25,lobo,13.0,m,focal_participant,tai,14.0,f,partner,chimpanzee,tai_lobo,mix,1,7,5,test,4,l,r,lobo,tai,partner,nonsoc,soc,0.92,0.8,,5.96,yes,yes,,,,6.76,0.92,6.76,,,,yes
sanchez2018chimpanzees,2017,6,25,lobo,13.0,m,focal_participant,tai,14.0,f,partner,chimpanzee,tai_lobo,mix,1,7,6,test,0,l,r,lobo,tai,partner,get_soc,soc,0.84,1.24,,1.8,yes,yes,,,,3.04,0.84,3.04,,,,yes
sanchez2018chimpanzees,2017,6,25,,,,,bangolo,7.0,m,partner,chimpanzee,frodo_bangolo,male,1,7,1,control,2,,l,bangolo,,partner,,soc,,1.88,,1.28,,yes,,,,3.16,,3.16,,,,yes
sanchez2018chimpanzees,2017,6,25,,,,,bangolo,7.0,m,partner,chimpanzee,frodo_bangolo,male,1,7,2,control,4,,l,bangolo,,partner,,soc,,0.76,,1.36,,yes,,,,2.12,,2.12,,,,yes
sanchez2018chimpanzees,2017,6,25,,,,,bangolo,7.0,m,partner,chimpanzee,frodo_bangolo,male,1,7,3,control,0,,l,bangolo,,partner,,soc,,0.92,,3.12,,yes,,,,4.04,,4.04,,,,yes
sanchez2018chimpanzees,2017,6,25,frodo,23.0,m,focal_participant,bangolo,7.0,m,partner,chimpanzee,frodo_bangolo,male,1,7,4,test,0,r,l,bangolo,frodo,partner,get_soc,soc,0.72,1.6,,2.76,yes,yes,,,,4.36,0.72,4.36,,,,yes
sanchez2018chimpanzees,2017,6,25,frodo,23.0,m,focal_participant,bangolo,7.0,m,partner,chimpanzee,frodo_bangolo,male,1,7,5,test,4,r,l,bangolo,frodo,partner,get_soc,soc,1.76,0.12,,1.96,yes,yes,,,,2.08,1.76,2.08,,,,yes
sanchez2018chimpanzees,2017,6,25,frodo,23.0,m,focal_participant,bangolo,7.0,m,partner,chimpanzee,frodo_bangolo,male,1,7,6,test,2,r,l,bangolo,frodo,partner,get_soc,soc,1.32,1.12,,2.12,yes,yes,,,,3.24,1.32,3.24,,,,yes
sanchez2018chimpanzees,2017,6,27,lome,15.0,m,focal_participant,,,,,chimpanzee,lome_kofi,male,1,1,1,control,0,r,,,lome,subject,soc,,1.36,,3.32,,yes,,,,4.68,,4.68,,0.0,yes,yes,
sanchez2018chimpanzees,2017,6,27,lome,15.0,m,focal_participant,,,,,chimpanzee,lome_kofi,male,1,1,2,control,4,r,,,lome,subject,nonsoc,,3.96,,,,yes,,,,,,3.96,,1.0,yes,,
sanchez2018chimpanzees,2017,6,27,lome,15.0,m,focal_participant,,,,,chimpanzee,lome_kofi,male,1,1,3,control,2,r,,,lome,subject,nonsoc,,1.52,,,,yes,,,,,,1.52,,1.0,yes,,
sanchez2018chimpanzees,2017,6,27,lome,15.0,m,focal_participant,kofi,11.0,m,partner,chimpanzee,lome_kofi,male,1,1,4,test,4,r,l,kofi,lome,subject,nonsoc,soc,1.76,0.68,,3.6,yes,yes,,,,4.28,1.76,4.28,1.0,yes,,
sanchez2018chimpanzees,2017,6,27,lome,15.0,m,focal_participant,kofi,11.0,m,partner,chimpanzee,lome_kofi,male,1,1,5,test,2,r,l,kofi,lome,subject,nonsoc,soc,2.24,1.44,,2.2,yes,yes,no,no,,3.64,2.24,3.64,1.0,yes,,
sanchez2018chimpanzees,2017,6,27,lome,15.0,m,focal_participant,kofi,11.0,m,partner,chimpanzee,lome_kofi,male,1,1,6,test,0,r,l,kofi,lome,subject,soc,get_soc,4.24,0.56,5.04,,yes,yes,no,no,9.28,,9.28,0.56,0.0,yes,yes,
sanchez2018chimpanzees,2017,6,27,lobo,13.0,m,focal_participant,tai,14.0,f,partner,chimpanzee,tai_lobo,mix,1,8,1,test,2,r,l,tai,lobo,subject,nonsoc,soc,1.44,2.6,,,yes,no,no,no,,,1.44,2.6,1.0,yes,,
sanchez2018chimpanzees,2017,6,27,lobo,13.0,m,focal_participant,tai,14.0,f,partner,chimpanzee,tai_lobo,mix,1,8,2,test,4,r,l,tai,lobo,subject,nonsoc,soc,2.16,0.88,,1.2,yes,yes,,,,2.08,2.16,2.08,1.0,yes,,
sanchez2018chimpanzees,2017,6,27,lobo,13.0,m,focal_participant,tai,14.0,f,partner,chimpanzee,tai_lobo,mix,1,8,3,test,0,r,l,tai,lobo,subject,get_soc,soc,12.32,2.56,,1.64,yes,yes,yes,yes,,4.2,12.32,4.2,0.0,yes,no,
sanchez2018chimpanzees,2017,6,27,lobo,13.0,m,focal_participant,,,,,chimpanzee,tai_lobo,mix,1,8,4,control,0,r,,,lobo,subject,soc,,2.76,,6.12,,yes,,,,8.88,,8.88,,0.0,yes,yes,
sanchez2018chimpanzees,2017,6,27,lobo,13.0,m,focal_participant,,,,,chimpanzee,tai_lobo,mix,1,8,5,control,4,r,,,lobo,subject,nonsoc,,1.6,,,,yes,,,,,,1.6,,1.0,yes,,
sanchez2018chimpanzees,2017,6,27,lobo,13.0,m,focal_participant,,,,,chimpanzee,tai_lobo,mix,1,8,6,control,2,r,,,lobo,subject,nonsoc,,3.48,,,,yes,,,,,,3.48,,1.0,yes,,
sanchez2018chimpanzees,2017,6,27,frodo,23.0,m,focal_participant,bangolo,7.0,m,partner,chimpanzee,frodo_bangolo,male,1,8,1,test,4,l,r,frodo,bangolo,subject,nonsoc,soc,1.56,3.64,,1.32,yes,yes,,,,4.96,1.56,4.96,1.0,yes,,
sanchez2018chimpanzees,2017,6,27,frodo,23.0,m,focal_participant,bangolo,7.0,m,partner,chimpanzee,frodo_bangolo,male,1,8,2,test,0,l,r,frodo,bangolo,subject,get_soc,soc,14.88,0.68,,2.08,yes,yes,yes,yes,,2.76,14.88,2.76,0.0,no,no,
sanchez2018chimpanzees,2017,6,27,frodo,23.0,m,focal_participant,bangolo,7.0,m,partner,chimpanzee,frodo_bangolo,male,1,8,3,test,2,l,r,frodo,bangolo,subject,get_soc,soc,18.88,3.52,,1.72,yes,yes,yes,yes,,5.24,18.88,5.24,0.0,no,no,
sanchez2018chimpanzees,2017,6,27,frodo,23.0,m,focal_participant,,,,,chimpanzee,frodo_bangolo,male,1,8,4,control,4,l,,frodo,,subject,nonsoc,,3.2,,,,yes,,,,,,3.2,,1.0,yes,,
sanchez2018chimpanzees,2017,6,27,frodo,23.0,m,focal_participant,,,,,chimpanzee,frodo_bangolo,male,1,8,5,control,0,l,,frodo,,subject,soc,,10.04,,2.48,,yes,,,,12.52,,12.52,,0.0,yes,yes,
sanchez2018chimpanzees,2017,6,27,frodo,23.0,m,focal_participant,,,,,chimpanzee,frodo_bangolo,male,1,8,6,control,2,l,,frodo,,subject,nonsoc,,3.04,,,,yes,,,,,,3.04,,1.0,yes,,
sanchez2018chimpanzees,2017,6,28,bangolo,7.0,m,focal_participant,frodo,23.0,m,partner,chimpanzee,frodo_bangolo,male,1,1,1,test,2,r,l,frodo,bangolo,subject,nonsoc,no,0.84,,,,yes,no,no,no,,,0.84,,1.0,yes,,
sanchez2018chimpanzees,2017,6,28,bangolo,7.0,m,focal_participant,frodo,23.0,m,partner,chimpanzee,frodo_bangolo,male,1,1,2,test,0,r,l,frodo,bangolo,subject,soc,get_soc,1.36,1.08,2.52,,yes,yes,no,no,3.88,,3.88,1.08,0.0,yes,yes,
sanchez2018chimpanzees,2017,6,28,bangolo,7.0,m,focal_participant,frodo,23.0,m,partner,chimpanzee,frodo_bangolo,male,1,1,3,test,4,r,l,frodo,bangolo,subject,nonsoc,no,0.68,,,,yes,no,,,,,0.68,,1.0,yes,,
sanchez2018chimpanzees,2017,6,28,bangolo,7.0,m,focal_participant,,,,,chimpanzee,frodo_bangolo,male,1,1,4,control,2,r,,,bangolo,subject,nonsoc,,1.52,,,,yes,,,,,,1.52,,1.0,yes,,
sanchez2018chimpanzees,2017,6,28,bangolo,7.0,m,focal_participant,,,,,chimpanzee,frodo_bangolo,male,1,1,5,control,4,r,,,bangolo,subject,nonsoc,,1.32,,,,yes,,,,,,1.32,,1.0,yes,,
sanchez2018chimpanzees,2017,6,28,bangolo,7.0,m,focal_participant,,,,,chimpanzee,frodo_bangolo,male,1,1,6,control,0,r,,,bangolo,subject,soc,,2.16,,3.6,,yes,,,,5.76,,5.76,,0.0,yes,yes,
sanchez2018chimpanzees,2017,6,28,lome,15.0,m,focal_participant,kofi,11.0,m,partner,chimpanzee,lome_kofi,male,1,2,1,test,4,l,r,lome,kofi,partner,nonsoc,soc,2.68,0.84,,3.48,yes,yes,,,,4.32,2.68,4.32,,,,yes
sanchez2018chimpanzees,2017,6,28,lome,15.0,m,focal_participant,kofi,11.0,m,partner,chimpanzee,lome_kofi,male,1,2,2,test,0,l,r,lome,kofi,partner,get_soc,soc,5.96,2.36,,1.44,yes,yes,,,,3.8,5.96,3.8,,,,yes
sanchez2018chimpanzees,2017,6,28,lome,15.0,m,focal_participant,kofi,11.0,m,partner,chimpanzee,lome_kofi,male,1,2,3,test,2,l,r,lome,kofi,partner,get_soc,soc,1.52,1,,2.32,yes,yes,,,,3.32,1.52,3.32,,,,yes
sanchez2018chimpanzees,2017,6,28,,,,,kofi,11.0,m,partner,chimpanzee,lome_kofi,male,1,2,4,control,2,,r,,kofi,partner,,soc,,3.24,,1.4,,yes,,,,4.64,,4.64,,,,yes
sanchez2018chimpanzees,2017,6,28,,,,,kofi,11.0,m,partner,chimpanzee,lome_kofi,male,1,2,5,control,0,,r,,kofi,partner,,soc,,0.96,,2.76,,yes,,,,3.72,,3.72,,,,yes
sanchez2018chimpanzees,2017,6,28,,,,,kofi,11.0,m,partner,chimpanzee,lome_kofi,male,1,2,6,control,4,,r,,kofi,partner,,soc,,1,,4.16,,yes,,,,5.16,,5.16,,,,yes
sanchez2018chimpanzees,2017,6,30,,,,,frodo,23.0,m,partner,chimpanzee,frodo_bangolo,male,1,2,1,control,0,,r,,frodo,partner,,soc,,3.48,,3.52,,yes,,,,7,,7,,,,yes
sanchez2018chimpanzees,2017,6,30,,,,,frodo,23.0,m,partner,chimpanzee,frodo_bangolo,male,1,2,2,control,4,,r,,frodo,partner,,soc,,11.88,,5.4,,yes,,,,17.28,,17.28,,,,yes
sanchez2018chimpanzees,2017,7,4,,,,,frodo,23.0,m,partner,chimpanzee,frodo_bangolo,male,1,2,3,control,2,,r,,frodo,partner,,no,,,,,,no,,,,,,,,,,no
sanchez2018chimpanzees,2017,7,5,bangolo,8.0,m,focal_participant,frodo,23.0,m,partner,chimpanzee,frodo_bangolo,male,1,2,4,test,0,l,r,bangolo,frodo,partner,soc,get_soc,0.52,18.28,2.08,,yes,yes,,,2.6,,2.6,18.28,,,,no
sanchez2018chimpanzees,2017,7,5,bangolo,8.0,m,focal_participant,frodo,23.0,m,partner,chimpanzee,frodo_bangolo,male,1,2,5,test,4,l,r,bangolo,frodo,partner,nonsoc,no,0.96,,,,yes,no,,,,,0.96,,,,,no
sanchez2018chimpanzees,2017,7,5,bangolo,8.0,m,focal_participant,frodo,23.0,m,partner,chimpanzee,frodo_bangolo,male,1,2,6,test,2,l,r,bangolo,frodo,partner,nonsoc,no,0.8,,,,yes,no,,,,,0.8,,,,,no
sanchez2018chimpanzees,2017,6,30,lome,15.0,m,focal_participant,kofi,11.0,m,partner,chimpanzee,lome_kofi,male,1,3,1,test,0,r,l,kofi,lome,subject,soc,get_soc,3.08,0.68,3.32,,yes,yes,no,no,6.4,,6.4,0.68,0.0,yes,yes,
sanchez2018chimpanzees,2017,6,30,lome,15.0,m,focal_participant,kofi,11.0,m,partner,chimpanzee,lome_kofi,male,1,3,2,test,4,r,l,kofi,lome,subject,nonsoc,soc,7.76,3.48,,3.48,yes,yes,,,,6.96,7.76,6.96,1.0,yes,,
sanchez2018chimpanzees,2017,6,30,lome,15.0,m,focal_participant,kofi,11.0,m,partner,chimpanzee,lome_kofi,male,1,3,3,test,2,r,l,kofi,lome,subject,nonsoc,no,1.6,,,,yes,no,no,no,,,1.6,,1.0,yes,,
sanchez2018chimpanzees,2017,6,30,lome,15.0,m,focal_participant,,,,,chimpanzee,lome_kofi,male,1,3,4,control,0,r,,,lome,subject,soc,,2.72,,1.48,,yes,,,,4.2,,4.2,,0.0,yes,yes,
sanchez2018chimpanzees,2017,6,30,lome,15.0,m,focal_participant,,,,,chimpanzee,lome_kofi,male,1,3,5,control,2,r,,,lome,subject,nonsoc,,2.8,,,,yes,,,,,,2.8,,1.0,yes,,
sanchez2018chimpanzees,2017,6,30,lome,15.0,m,focal_participant,,,,,chimpanzee,lome_kofi,male,1,3,6,control,4,r,,,lome,subject,nonsoc,,2.52,,,,yes,,,,,,2.52,,1.0,yes,,
sanchez2018chimpanzees,2017,7,2,,,,,kofi,11.0,m,partner,chimpanzee,lome_kofi,male,1,4,1,control,0,,r,,kofi,partner,,soc,,5.08,,4.16,,yes,,,,9.24,,9.24,,,,yes
sanchez2018chimpanzees,2017,7,2,,,,,kofi,11.0,m,partner,chimpanzee,lome_kofi,male,1,4,2,control,4,,r,,kofi,partner,,soc,,3.52,,1.72,,yes,,,,5.24,,5.24,,,,yes
sanchez2018chimpanzees,2017,7,2,,,,,kofi,11.0,m,partner,chimpanzee,lome_kofi,male,1,4,3,control,2,,r,,kofi,partner,,soc,,0.96,,4.44,,yes,,,,5.4,,5.4,,,,yes
sanchez2018chimpanzees,2017,7,2,lome,15.0,m,focal_participant,kofi,11.0,m,partner,chimpanzee,lome_kofi,male,1,4,4,test,2,l,r,lome,kofi,partner,nonsoc,soc,1.44,0.64,,1.52,yes,yes,,,,2.16,1.44,2.16,,,,yes
sanchez2018chimpanzees,2017,7,2,lome,15.0,m,focal_participant,kofi,11.0,m,partner,chimpanzee,lome_kofi,male,1,4,5,test,4,l,r,lome,kofi,partner,nonsoc,soc,1.4,5.04,,4.4,yes,yes,,,,9.44,1.4,9.44,,,,yes
sanchez2018chimpanzees,2017,7,2,lome,15.0,m,focal_participant,kofi,11.0,m,partner,chimpanzee,lome_kofi,male,1,4,6,test,0,l,r,lome,kofi,partner,soc,no,0.96,,7.8,,no,no,,,8.76,,8.76,,,,,no
sanchez2018chimpanzees,2017,7,4,lome,15.0,m,focal_participant,,,,,chimpanzee,lome_kofi,male,1,5,1,control,0,l,,lome,,subject,soc,,2.04,,12.2,,yes,,,,14.24,,14.24,,0.0,yes,yes,
sanchez2018chimpanzees,2017,7,4,lome,15.0,m,focal_participant,,,,,chimpanzee,lome_kofi,male,1,5,2,control,2,l,,lome,,subject,nonsoc,,1.84,,,,yes,,,,,,1.84,,1.0,yes,,
sanchez2018chimpanzees,2017,7,4,lome,15.0,m,focal_participant,,,,,chimpanzee,lome_kofi,male,1,5,3,control,4,l,,lome,,subject,nonsoc,,0.72,,,,yes,,,,,,0.72,,1.0,yes,,
sanchez2018chimpanzees,2017,7,4,lome,15.0,m,focal_participant,kofi,12.0,m,partner,chimpanzee,lome_kofi,male,1,5,4,test,2,l,r,lome,kofi,subject,nonsoc,soc,3.32,2.6,,3.6,yes,yes,no,no,,6.2,3.32,6.2,1.0,yes,,
sanchez2018chimpanzees,2017,7,4,lome,15.0,m,focal_participant,kofi,12.0,m,partner,chimpanzee,lome_kofi,male,1,5,5,test,4,l,r,lome,kofi,subject,nonsoc,soc,4.4,1.44,,,yes,no,,,,,4.4,1.44,1.0,yes,,
sanchez2018chimpanzees,2017,7,4,lome,15.0,m,focal_participant,kofi,12.0,m,partner,chimpanzee,lome_kofi,male,1,5,6,test,0,l,r,lome,kofi,subject,soc,get_soc,0.32,1.08,2.32,,yes,yes,no,no,2.64,,2.64,1.08,0.0,yes,yes,
sanchez2018chimpanzees,2017,7,5,lome,15.0,m,focal_participant,kofi,12.0,m,partner,chimpanzee,lome_kofi,male,1,6,1,test,0,r,l,kofi,lome,partner,soc,get_soc,2.48,18.6,3.44,,yes,yes,,,5.92,,5.92,18.6,,,,no
sanchez2018chimpanzees,2017,7,5,lome,15.0,m,focal_participant,kofi,12.0,m,partner,chimpanzee,lome_kofi,male,1,6,2,test,2,r,l,kofi,lome,partner,nonsoc,soc,1.68,17.32,,1.72,yes,yes,,,,19.04,1.68,19.04,,,,no
sanchez2018chimpanzees,2017,7,5,lome,15.0,m,focal_participant,kofi,12.0,m,partner,chimpanzee,lome_kofi,male,1,6,3,test,4,r,l,kofi,lome,partner,nonsoc,soc,1.88,17.52,,1.44,yes,yes,,,,18.96,1.88,18.96,,,,no
sanchez2018chimpanzees,2017,7,5,,,,,kofi,12.0,m,partner,chimpanzee,lome_kofi,male,1,6,4,control,4,,l,kofi,,partner,,soc,,2,,1.28,,yes,,,,3.28,,3.28,,,,yes
sanchez2018chimpanzees,2017,7,5,,,,,kofi,12.0,m,partner,chimpanzee,lome_kofi,male,1,6,5,control,0,,l,kofi,,partner,,soc,,5,,1.64,,yes,,,,6.64,,6.64,,,,yes
sanchez2018chimpanzees,2017,7,5,,,,,kofi,12.0,m,partner,chimpanzee,lome_kofi,male,1,6,6,control,2,,l,kofi,,partner,,soc,,0.64,,4.56,,yes,,,,5.2,,5.2,,,,yes
sanchez2018chimpanzees,2017,7,8,lome,15.0,m,focal_participant,kofi,12.0,m,partner,chimpanzee,lome_kofi,male,1,7,1,test,0,l,r,lome,kofi,subject,soc,get_soc,4.68,7.04,11.12,,yes,yes,no,yes,15.8,,15.8,7.04,0.0,yes,yes,
sanchez2018chimpanzees,2017,7,8,lome,15.0,m,focal_participant,kofi,12.0,m,partner,chimpanzee,lome_kofi,male,1,7,2,test,4,l,r,lome,kofi,subject,nonsoc,soc,4.64,0.72,,2.96,yes,yes,,,,3.68,4.64,3.68,1.0,yes,,
sanchez2018chimpanzees,2017,7,8,lome,15.0,m,focal_participant,kofi,12.0,m,partner,chimpanzee,lome_kofi,male,1,7,3,test,2,l,r,lome,kofi,subject,nonsoc,soc,2.4,0.44,,2.32,yes,yes,no,no,,2.76,2.4,2.76,1.0,yes,,
sanchez2018chimpanzees,2017,7,8,lome,15.0,m,focal_participant,,,,,chimpanzee,lome_kofi,male,1,7,4,control,0,l,,lome,,subject,soc,,3.12,,1.76,,yes,,,,4.88,,4.88,,0.0,yes,yes,
sanchez2018chimpanzees,2017,7,8,lome,15.0,m,focal_participant,,,,,chimpanzee,lome_kofi,male,1,7,5,control,2,l,,lome,,subject,nonsoc,,3.88,,,,yes,,,,,,3.88,,1.0,yes,,
sanchez2018chimpanzees,2017,7,8,lome,15.0,m,focal_participant,,,,,chimpanzee,lome_kofi,male,1,7,6,control,4,l,,lome,,subject,nonsoc,,4.68,,,,yes,,,,,,4.68,,1.0,yes,,
sanchez2018chimpanzees,2017,7,8,bangolo,8.0,m,focal_participant,,,,,chimpanzee,frodo_bangolo,male,1,3,1,control,4,r,,,bangolo,subject,nonsoc,,1.56,,,,yes,,,,,,1.56,,1.0,yes,,
sanchez2018chimpanzees,2017,7,8,bangolo,8.0,m,focal_participant,,,,,chimpanzee,frodo_bangolo,male,1,3,2,control,0,r,,,bangolo,subject,soc,,0.44,,1.2,,yes,,,,1.64,,1.64,,0.0,yes,yes,
sanchez2018chimpanzees,2017,7,8,bangolo,8.0,m,focal_participant,,,,,chimpanzee,frodo_bangolo,male,1,3,3,control,2,r,,,bangolo,subject,nonsoc,,2.16,,,,yes,,,,,,2.16,,1.0,yes,,
sanchez2018chimpanzees,2017,7,8,bangolo,8.0,m,focal_participant,frodo,23.0,m,partner,chimpanzee,frodo_bangolo,male,1,3,4,test,4,r,l,frodo,bangolo,subject,nonsoc,no,1.6,,,,yes,no,,,,,1.6,,1.0,yes,,
sanchez2018chimpanzees,2017,7,8,bangolo,8.0,m,focal_participant,frodo,23.0,m,partner,chimpanzee,frodo_bangolo,male,1,3,5,test,2,r,l,frodo,bangolo,subject,nonsoc,no,2.8,,,,yes,no,no,no,,,2.8,,1.0,yes,,
sanchez2018chimpanzees,2017,7,8,bangolo,8.0,m,focal_participant,frodo,23.0,m,partner,chimpanzee,frodo_bangolo,male,1,3,6,test,0,r,l,frodo,bangolo,subject,soc,get_soc,1.68,1.28,1.2,,yes,yes,no,no,2.88,,2.88,1.28,0.0,yes,yes,
sanchez2018chimpanzees,2017,7,11,,,,,kofi,12.0,m,partner,chimpanzee,lome_kofi,male,1,8,1,control,2,,l,kofi,,partner,,soc,,0.92,,6.6,,yes,,,,7.52,,7.52,,,,yes
sanchez2018chimpanzees,2017,7,11,,,,,kofi,12.0,m,partner,chimpanzee,lome_kofi,male,1,8,2,control,4,,l,kofi,,partner,,soc,,0.92,,8.72,,yes,,,,9.64,,9.64,,,,yes
sanchez2018chimpanzees,2017,7,11,,,,,kofi,12.0,m,partner,chimpanzee,lome_kofi,male,1,8,3,control,0,,l,kofi,,partner,,soc,,1.32,,3.24,,yes,,,,4.56,,4.56,,,,yes
sanchez2018chimpanzees,2017,7,11,lome,15.0,m,focal_participant,kofi,12.0,m,partner,chimpanzee,lome_kofi,male,1,8,4,test,0,r,l,kofi,lome,partner,get_soc,soc,0.92,1.24,,1.76,yes,yes,,,,3,0.92,3,,,,yes
sanchez2018chimpanzees,2017,7,11,lome,15.0,m,focal_participant,kofi,12.0,m,partner,chimpanzee,lome_kofi,male,1,8,5,test,4,r,l,kofi,lome,partner,nonsoc,soc,2,10.16,,4.76,yes,yes,,,,14.92,2,14.92,,,,no
sanchez2018chimpanzees,2017,7,11,lome,15.0,m,focal_participant,kofi,12.0,m,partner,chimpanzee,lome_kofi,male,1,8,6,test,2,r,l,kofi,lome,partner,nonsoc,soc,0.76,0.96,,13.64,yes,yes,,,,14.6,0.76,14.6,,,,no
sanchez2018chimpanzees,2017,7,11,bangolo,8.0,m,focal_participant,frodo,23.0,m,partner,chimpanzee,frodo_bangolo,male,1,4,1,test,2,l,r,bangolo,frodo,partner,nonsoc,no,1.04,,,,yes,no,,,,,1.04,,,,,no
sanchez2018chimpanzees,2017,7,11,bangolo,8.0,m,focal_participant,frodo,23.0,m,partner,chimpanzee,frodo_bangolo,male,1,4,2,test,4,l,r,bangolo,frodo,partner,nonsoc,no,1.72,,,,yes,no,,,,,1.72,,,,,no
sanchez2018chimpanzees,2017,7,11,bangolo,8.0,m,focal_participant,frodo,23.0,m,partner,chimpanzee,frodo_bangolo,male,1,4,3,test,0,l,r,bangolo,frodo,partner,soc,no,0.8,,8.84,,yes,no,,,9.64,,9.64,,,,,no
sanchez2018chimpanzees,2017,7,11,,,,,frodo,23.0,m,partner,chimpanzee,frodo_bangolo,male,1,4,4,control,0,,r,,frodo,partner,,soc,,13.36,,7.76,,yes,,,,21.12,,21.12,,,,yes
sanchez2018chimpanzees,2017,7,11,,,,,frodo,23.0,m,partner,chimpanzee,frodo_bangolo,male,1,4,5,control,2,,r,,frodo,partner,,soc,,6.28,,2.36,,yes,,,,8.64,,8.64,,,,yes
sanchez2018chimpanzees,2017,7,11,,,,,frodo,23.0,m,partner,chimpanzee,frodo_bangolo,male,1,4,6,control,4,,r,,frodo,partner,,soc,,9,,7.12,,yes,,,,16.12,,16.12,,,,yes
sanchez2018chimpanzees,2017,7,12,,,,,lome,15.0,m,partner,chimpanzee,lome_kofi,male,1,1,1,control,2,,r,,lome,partner,,soc,,6.68,,1.56,,yes,,,,8.24,,8.24,,,,yes
sanchez2018chimpanzees,2017,7,12,,,,,lome,15.0,m,partner,chimpanzee,lome_kofi,male,1,1,2,control,4,,r,,lome,partner,,soc,,1.12,,0.84,,yes,,,,1.96,,1.96,,,,yes
sanchez2018chimpanzees,2017,7,12,,,,,lome,15.0,m,partner,chimpanzee,lome_kofi,male,1,1,3,control,0,,r,,lome,partner,,soc,,2.16,,7.52,,yes,,,,9.68,,9.68,,,,yes
sanchez2018chimpanzees,2017,7,12,kofi,12.0,m,focal_participant,lome,15.0,m,partner,chimpanzee,lome_kofi,male,1,1,4,test,2,l,r,kofi,lome,partner,get_soc,soc,11.44,8.52,,10.44,yes,yes,,,,18.96,11.44,18.96,,,,yes
sanchez2018chimpanzees,2017,7,12,kofi,12.0,m,focal_participant,lome,15.0,m,partner,chimpanzee,lome_kofi,male,1,1,5,test,0,l,r,kofi,lome,partner,soc,get_soc,0.64,13.24,3.24,,yes,yes,,,3.88,,3.88,13.24,,,,no
sanchez2018chimpanzees,2017,7,12,kofi,12.0,m,focal_participant,lome,15.0,m,partner,chimpanzee,lome_kofi,male,1,1,6,test,4,l,r,kofi,lome,partner,nonsoc,soc,0.88,0.76,,15.88,yes,yes,,,,16.64,0.88,16.64,,,,no
sanchez2018chimpanzees,2017,7,12,bangolo,8.0,m,focal_participant,frodo,23.0,m,partner,chimpanzee,frodo_bangolo,male,1,5,1,test,2,l,r,bangolo,frodo,subject,nonsoc,no,0.32,,,,yes,no,no,no,,,0.32,,1.0,yes,,
sanchez2018chimpanzees,2017,7,12,bangolo,8.0,m,focal_participant,frodo,23.0,m,partner,chimpanzee,frodo_bangolo,male,1,5,2,test,4,l,r,bangolo,frodo,subject,nonsoc,no,0.6,,,,yes,no,,,,,0.6,,1.0,yes,,
sanchez2018chimpanzees,2017,7,12,bangolo,8.0,m,focal_participant,frodo,23.0,m,partner,chimpanzee,frodo_bangolo,male,1,5,3,test,0,l,r,bangolo,frodo,subject,soc,get_soc,0.6,0.64,1.24,,yes,yes,no,no,1.84,,1.84,0.64,0.0,yes,yes,
sanchez2018chimpanzees,2017,7,12,bangolo,8.0,m,focal_participant,,,,,chimpanzee,frodo_bangolo,male,1,5,4,control,4,l,,bangolo,,subject,nonsoc,,0.52,,,,yes,,,,,,0.52,,1.0,yes,,
sanchez2018chimpanzees,2017,7,12,bangolo,8.0,m,focal_participant,,,,,chimpanzee,frodo_bangolo,male,1,5,5,control,0,l,,bangolo,,subject,soc,,1.44,,1.24,,yes,,,,2.68,,2.68,,0.0,yes,yes,
sanchez2018chimpanzees,2017,7,12,bangolo,8.0,m,focal_participant,,,,,chimpanzee,frodo_bangolo,male,1,5,6,control,2,l,,bangolo,,subject,nonsoc,,0.16,,,,yes,,,,,,0.16,,1.0,yes,,
sanchez2018chimpanzees,2017,7,13,kofi,12.0,m,focal_participant,lome,15.0,m,partner,chimpanzee,lome_kofi,male,1,2,1,test,0,r,l,lome,kofi,subject,soc,get_soc,0.48,5.04,4.24,,yes,yes,no,no,4.72,,4.72,5.04,0.0,yes,yes,
sanchez2018chimpanzees,2017,7,13,kofi,12.0,m,focal_participant,lome,15.0,m,partner,chimpanzee,lome_kofi,male,1,2,2,test,2,r,l,lome,kofi,subject,nonsoc,soc,1.44,0.24,,1.56,yes,yes,no,no,,1.8,1.44,1.8,1.0,yes,,
sanchez2018chimpanzees,2017,7,13,kofi,12.0,m,focal_participant,lome,15.0,m,partner,chimpanzee,lome_kofi,male,1,2,3,test,4,r,l,lome,kofi,subject,nonsoc,soc,0.96,0.44,,1.6,yes,no,,,,2.04,0.96,2.04,1.0,yes,,
sanchez2018chimpanzees,2017,7,13,kofi,12.0,m,focal_participant,,,,,chimpanzee,lome_kofi,male,1,2,4,control,2,r,,,kofi,subject,nonsoc,,1.32,,,,yes,,,,,,1.32,,1.0,yes,,
sanchez2018chimpanzees,2017,7,13,kofi,12.0,m,focal_participant,,,,,chimpanzee,lome_kofi,male,1,2,5,control,4,r,,,kofi,subject,nonsoc,,1.16,,,,yes,,,,,,1.16,,1.0,yes,,
sanchez2018chimpanzees,2017,7,13,kofi,12.0,m,focal_participant,,,,,chimpanzee,lome_kofi,male,1,2,6,control,0,r,,,kofi,subject,soc,,1.08,,1.88,,yes,,,,2.96,,2.96,,0.0,yes,yes,
sanchez2018chimpanzees,2017,7,13,,,,,frodo,23.0,m,partner,chimpanzee,frodo_bangolo,male,1,6,1,control,0,,l,frodo,,partner,,soc,,4.08,,13.52,,yes,,,,17.6,,17.6,,,,yes
sanchez2018chimpanzees,2017,7,13,,,,,frodo,23.0,m,partner,chimpanzee,frodo_bangolo,male,1,6,2,control,2,,l,frodo,,partner,,soc,,3,,5.2,,yes,,,,8.2,,8.2,,,,yes
sanchez2018chimpanzees,2017,7,13,,,,,frodo,23.0,m,partner,chimpanzee,frodo_bangolo,male,1,6,3,control,4,,l,frodo,,partner,,soc,,1.88,,7.6,,yes,,,,9.48,,9.48,,,,yes
sanchez2018chimpanzees,2017,7,13,bangolo,8.0,m,focal_participant,frodo,23.0,m,partner,chimpanzee,frodo_bangolo,male,1,6,4,test,2,r,l,frodo,bangolo,partner,nonsoc,no,2.4,,,,yes,no,,,,,2.4,,,,,no
sanchez2018chimpanzees,2017,7,13,bangolo,8.0,m,focal_participant,frodo,23.0,m,partner,chimpanzee,frodo_bangolo,male,1,6,5,test,0,r,l,frodo,bangolo,partner,soc,get_soc,0.68,16.64,1.56,,yes,yes,,,2.24,,2.24,16.64,,,,no
sanchez2018chimpanzees,2017,7,13,bangolo,8.0,m,focal_participant,frodo,23.0,m,partner,chimpanzee,frodo_bangolo,male,1,6,6,test,4,r,l,frodo,bangolo,partner,nonsoc,no,1.2,,,,yes,no,,,,,1.2,,,,,no
sanchez2018chimpanzees,2017,7,15,kofi,12.0,m,focal_participant,lome,15.0,m,partner,chimpanzee,lome_kofi,male,1,3,1,test,4,l,r,kofi,lome,partner,nonsoc,soc,0.92,0.96,,4.48,yes,yes,,,,5.44,0.92,5.44,,,,yes
sanchez2018chimpanzees,2017,7,15,kofi,12.0,m,focal_participant,lome,15.0,m,partner,chimpanzee,lome_kofi,male,1,3,2,test,2,l,r,kofi,lome,partner,nonsoc,soc,1.8,0.72,,1.72,yes,yes,,,,2.44,1.8,2.44,,,,yes
sanchez2018chimpanzees,2017,7,15,kofi,12.0,m,focal_participant,lome,15.0,m,partner,chimpanzee,lome_kofi,male,1,3,3,test,0,l,r,kofi,lome,partner,get_soc,soc,0.68,0.72,,1.68,yes,yes,,,,2.4,0.68,2.4,,,,yes
sanchez2018chimpanzees,2017,7,15,,,,,lome,15.0,m,partner,chimpanzee,lome_kofi,male,1,3,4,control,0,,r,,lome,partner,,soc,,0.48,,4.6,,yes,,,,5.08,,5.08,,,,yes
sanchez2018chimpanzees,2017,7,15,,,,,lome,15.0,m,partner,chimpanzee,lome_kofi,male,1,3,5,control,4,,r,,lome,partner,,soc,,1.8,,2.4,,yes,,,,4.2,,4.2,,,,yes
sanchez2018chimpanzees,2017,7,15,,,,,lome,15.0,m,partner,chimpanzee,lome_kofi,male,1,3,6,control,2,,r,,lome,partner,,soc,,2.24,,6.24,,yes,,,,8.48,,8.48,,,,yes
sanchez2018chimpanzees,2017,7,16,kofi,12.0,m,focal_participant,,,,,chimpanzee,lome_kofi,male,1,4,1,control,4,r,,,kofi,subject,nonsoc,,1.08,,,,yes,,,,,,1.08,,1.0,yes,,
sanchez2018chimpanzees,2017,7,16,kofi,12.0,m,focal_participant,,,,,chimpanzee,lome_kofi,male,1,4,2,control,0,r,,,kofi,subject,soc,,2.36,,2.72,,yes,,,,5.08,,5.08,,0.0,yes,yes,
sanchez2018chimpanzees,2017,7,16,kofi,12.0,m,focal_participant,,,,,chimpanzee,lome_kofi,male,1,4,3,control,2,r,,,kofi,subject,nonsoc,,1.68,,,,yes,,,,,,1.68,,1.0,yes,,
sanchez2018chimpanzees,2017,7,16,kofi,12.0,m,focal_participant,lome,15.0,m,partner,chimpanzee,lome_kofi,male,1,4,4,test,4,r,l,lome,kofi,subject,nonsoc,soc,1.24,1.48,,4.92,yes,yes,,,,6.4,1.24,6.4,1.0,yes,,
sanchez2018chimpanzees,2017,7,16,kofi,12.0,m,focal_participant,lome,15.0,m,partner,chimpanzee,lome_kofi,male,1,4,5,test,2,r,l,lome,kofi,subject,nonsoc,soc,1.4,2.44,,5.56,yes,yes,no,no,,8,1.4,8,1.0,yes,,
sanchez2018chimpanzees,2017,7,16,kofi,12.0,m,focal_participant,lome,15.0,m,partner,chimpanzee,lome_kofi,male,1,4,6,test,0,r,l,lome,kofi,subject,get_soc,soc,21.84,0.72,,8.16,yes,yes,yes,yes,,8.88,21.84,8.88,0.0,no,no,
sanchez2018chimpanzees,2017,7,15,bangolo,8.0,m,focal_participant,,,,,chimpanzee,frodo_bangolo,male,1,7,1,control,4,l,,bangolo,,subject,nonsoc,,0.48,,,,yes,,,,,,0.48,,1.0,yes,,
sanchez2018chimpanzees,2017,7,15,bangolo,8.0,m,focal_participant,,,,,chimpanzee,frodo_bangolo,male,1,7,2,control,0,l,,bangolo,,subject,soc,,1.28,,5.2,,yes,,,,6.48,,6.48,,0.0,yes,yes,
sanchez2018chimpanzees,2017,7,15,bangolo,8.0,m,focal_participant,,,,,chimpanzee,frodo_bangolo,male,1,7,3,control,2,l,,bangolo,,subject,nonsoc,,0.44,,,,yes,,,,,,0.44,,1.0,yes,,
sanchez2018chimpanzees,2017,7,15,bangolo,8.0,m,focal_participant,frodo,23.0,m,partner,chimpanzee,frodo_bangolo,male,1,7,4,test,0,l,r,bangolo,frodo,subject,soc,get_soc,1.16,4.12,7.12,,yes,yes,no,no,8.28,,8.28,4.12,0.0,yes,yes,
sanchez2018chimpanzees,2017,7,15,bangolo,8.0,m,focal_participant,frodo,23.0,m,partner,chimpanzee,frodo_bangolo,male,1,7,5,test,4,l,r,bangolo,frodo,subject,nonsoc,no,0.2,,,,yes,no,,,,,0.2,,1.0,yes,,
sanchez2018chimpanzees,2017,7,15,bangolo,8.0,m,focal_participant,frodo,23.0,m,partner,chimpanzee,frodo_bangolo,male,1,7,6,test,2,l,r,bangolo,frodo,subject,nonsoc,no,0.28,,,,yes,no,no,no,,,0.28,,1.0,yes,,
sanchez2018chimpanzees,2017,7,16,bangolo,8.0,m,focal_participant,frodo,23.0,m,partner,chimpanzee,frodo_bangolo,male,1,8,1,test,0,r,l,frodo,bangolo,partner,soc,get_soc,1.88,18.72,1.48,,yes,yes,,,3.36,,3.36,18.72,,,,no
sanchez2018chimpanzees,2017,7,16,bangolo,8.0,m,focal_participant,frodo,23.0,m,partner,chimpanzee,frodo_bangolo,male,1,8,2,test,2,r,l,frodo,bangolo,partner,nonsoc,no,2.52,,,,yes,no,,,,,2.52,,,,,no
sanchez2018chimpanzees,2017,7,16,bangolo,8.0,m,focal_participant,frodo,23.0,m,partner,chimpanzee,frodo_bangolo,male,1,8,3,test,4,r,l,frodo,bangolo,partner,nonsoc,no,0.56,,,,yes,no,,,,,0.56,,,,,no
sanchez2018chimpanzees,2017,7,16,,,,,frodo,23.0,m,partner,chimpanzee,frodo_bangolo,male,1,8,4,control,0,,l,frodo,,partner,,no,,,,,,no,,,,,,,,,,no
sanchez2018chimpanzees,2017,7,16,,,,,frodo,23.0,m,partner,chimpanzee,frodo_bangolo,male,1,8,5,control,2,,l,frodo,,partner,,no,,,,,,no,,,,,,,,,,no
sanchez2018chimpanzees,2017,7,16,,,,,frodo,23.0,m,partner,chimpanzee,frodo_bangolo,male,1,8,6,control,4,,l,frodo,,partner,,no,,,,,,no,,,,,,,,,,no
sanchez2018chimpanzees,2017,7,18,bangolo,8.0,m,focal_participant,,,,,chimpanzee,bangolo_tai,mix,2,1,1,control,0,r,,,bangolo,subject,soc,,1.12,,1.48,,yes,,,,2.6,,2.6,,0.0,yes,yes,
sanchez2018chimpanzees,2017,7,18,bangolo,8.0,m,focal_participant,,,,,chimpanzee,bangolo_tai,mix,2,1,2,control,4,r,,,bangolo,subject,nonsoc,,0.44,,,,yes,,,,,,0.44,,1.0,yes,,
sanchez2018chimpanzees,2017,7,18,bangolo,8.0,m,focal_participant,,,,,chimpanzee,bangolo_tai,mix,2,1,3,control,2,r,,,bangolo,subject,nonsoc,,1.48,,,,yes,,,,,,1.48,,1.0,yes,,
sanchez2018chimpanzees,2017,7,18,bangolo,8.0,m,focal_participant,tai,14.0,f,partner,chimpanzee,bangolo_tai,mix,2,1,4,test,4,r,l,tai,bangolo,subject,nonsoc,soc,0.56,1.48,,3.36,yes,yes,,,,4.84,0.56,4.84,1.0,yes,,
sanchez2018chimpanzees,2017,7,18,bangolo,8.0,m,focal_participant,tai,14.0,f,partner,chimpanzee,bangolo_tai,mix,2,1,5,test,2,r,l,tai,bangolo,subject,nonsoc,soc,0.76,1.84,,6.88,yes,yes,no,no,,8.72,0.76,8.72,1.0,yes,,
sanchez2018chimpanzees,2017,7,18,bangolo,8.0,m,focal_participant,tai,14.0,f,partner,chimpanzee,bangolo_tai,mix,2,1,6,test,0,r,l,tai,bangolo,subject,soc,get_soc,0.72,0.56,2.04,,yes,yes,no,no,2.76,,2.76,0.56,0.0,yes,yes,
sanchez2018chimpanzees,2017,7,18,,,,,lome,15.0,m,partner,chimpanzee,lome_kofi,male,1,5,1,control,2,,l,lome,,partner,,soc,,1.28,,3.52,,yes,,,,4.8,,4.8,,,,yes
sanchez2018chimpanzees,2017,7,18,,,,,lome,15.0,m,partner,chimpanzee,lome_kofi,male,1,5,2,control,0,,l,lome,,partner,,soc,,0.8,,3.04,,yes,,,,3.84,,3.84,,,,yes
sanchez2018chimpanzees,2017,7,18,,,,,lome,15.0,m,partner,chimpanzee,lome_kofi,male,1,5,3,control,4,,l,lome,,partner,,soc,,0.64,,5.48,,yes,,,,6.12,,6.12,,,,yes
sanchez2018chimpanzees,2017,7,18,kofi,12.0,m,focal_participant,lome,15.0,m,partner,chimpanzee,lome_kofi,male,1,5,4,test,0,r,l,lome,kofi,partner,get_soc,soc,0.88,0.8,,2.24,yes,yes,,,,3.04,0.88,3.04,,,,yes
sanchez2018chimpanzees,2017,7,18,kofi,12.0,m,focal_participant,lome,15.0,m,partner,chimpanzee,lome_kofi,male,1,5,5,test,4,r,l,lome,kofi,partner,nonsoc,soc,1.96,0.48,,3.12,yes,yes,,,,3.6,1.96,3.6,,,,yes
sanchez2018chimpanzees,2017,7,18,kofi,12.0,m,focal_participant,lome,15.0,m,partner,chimpanzee,lome_kofi,male,1,5,6,test,2,r,l,lome,kofi,partner,get_soc,soc,1.96,0.96,,1.64,yes,yes,,,,2.6,1.96,2.6,,,,yes
sanchez2018chimpanzees,2017,7,19,bangolo,8.0,m,focal_participant,tai,14.0,f,partner,chimpanzee,bangolo_tai,mix,2,2,1,test,4,l,r,bangolo,tai,partner,nonsoc,soc,0.76,1.56,,4.16,yes,yes,,,,5.72,0.76,5.72,,,,yes
sanchez2018chimpanzees,2017,7,19,bangolo,8.0,m,focal_participant,tai,14.0,f,partner,chimpanzee,bangolo_tai,mix,2,2,2,test,0,l,r,bangolo,tai,partner,get_soc,soc,0.44,0.68,,1.96,yes,yes,,,,2.64,0.44,2.64,,,,yes
sanchez2018chimpanzees,2017,7,19,bangolo,8.0,m,focal_participant,tai,14.0,f,partner,chimpanzee,bangolo_tai,mix,2,2,3,test,2,l,r,bangolo,tai,partner,nonsoc,soc,0.92,1.32,,2.16,yes,yes,,,,3.48,0.92,3.48,,,,yes
sanchez2018chimpanzees,2017,7,19,,,,,tai,14.0,f,partner,chimpanzee,bangolo_tai,mix,2,2,4,control,2,,r,,tai,partner,,soc,,1.76,,2.24,,yes,,,,4,,4,,,,yes
sanchez2018chimpanzees,2017,7,19,,,,,tai,14.0,f,partner,chimpanzee,bangolo_tai,mix,2,2,5,control,0,,r,,tai,partner,,soc,,1.08,,3.68,,yes,,,,4.76,,4.76,,,,yes
sanchez2018chimpanzees,2017,7,19,,,,,tai,14.0,f,partner,chimpanzee,bangolo_tai,mix,2,2,6,control,4,,r,,tai,partner,,soc,,0.96,,1.76,,yes,,,,2.72,,2.72,,,,yes
sanchez2018chimpanzees,2017,7,19,kofi,12.0,m,focal_participant,lome,15.0,m,partner,chimpanzee,lome_kofi,male,1,6,1,test,2,l,r,kofi,lome,subject,nonsoc,soc,1.28,1,,2.12,yes,yes,no,no,,3.12,1.28,3.12,1.0,yes,,
sanchez2018chimpanzees,2017,7,19,kofi,12.0,m,focal_participant,lome,15.0,m,partner,chimpanzee,lome_kofi,male,1,6,2,test,4,l,r,kofi,lome,subject,nonsoc,soc,1.32,1.56,,2.2,yes,yes,,,,3.76,1.32,3.76,1.0,yes,,
sanchez2018chimpanzees,2017,7,19,kofi,12.0,m,focal_participant,lome,15.0,m,partner,chimpanzee,lome_kofi,male,1,6,3,test,0,l,r,kofi,lome,subject,get_soc,soc,16.88,1.4,,2.24,yes,yes,yes,yes,,3.64,16.88,3.64,0.0,no,no,
sanchez2018chimpanzees,2017,7,19,kofi,12.0,m,focal_participant,,,,,chimpanzee,lome_kofi,male,1,6,4,control,4,l,,kofi,,subject,nonsoc,,2.12,,,,yes,,,,,,2.12,,1.0,yes,,
sanchez2018chimpanzees,2017,7,19,kofi,12.0,m,focal_participant,,,,,chimpanzee,lome_kofi,male,1,6,5,control,0,l,,kofi,,subject,soc,,3.28,,4.6,,yes,,,,7.88,,7.88,,0.0,yes,yes,
sanchez2018chimpanzees,2017,7,19,kofi,12.0,m,focal_participant,,,,,chimpanzee,lome_kofi,male,1,6,6,control,2,l,,kofi,,subject,nonsoc,,1.24,,,,yes,,,,,,1.24,,1.0,yes,,
sanchez2018chimpanzees,2017,7,26,bangolo,8.0,m,focal_participant,tai,14.0,f,partner,chimpanzee,bangolo_tai,mix,2,3,1,test,0,r,l,tai,bangolo,subject,soc,get_soc,0.24,1.04,2.6,,yes,yes,no,no,2.84,,2.84,1.04,0.0,yes,yes,
sanchez2018chimpanzees,2017,7,26,bangolo,8.0,m,focal_participant,tai,14.0,f,partner,chimpanzee,bangolo_tai,mix,2,3,2,test,4,r,l,tai,bangolo,subject,nonsoc,soc,0.44,1.56,,1.24,yes,yes,,,,2.8,0.44,2.8,1.0,yes,,
sanchez2018chimpanzees,2017,7,26,bangolo,8.0,m,focal_participant,tai,14.0,f,partner,chimpanzee,bangolo_tai,mix,2,3,3,test,2,r,l,tai,bangolo,subject,nonsoc,soc,1.2,1.48,,1.28,yes,yes,no,no,,2.76,1.2,2.76,1.0,yes,,
sanchez2018chimpanzees,2017,7,26,bangolo,8.0,m,focal_participant,,,,,chimpanzee,bangolo_tai,mix,2,3,4,control,0,r,,,bangolo,subject,soc,,0.8,,1.32,,yes,,,,2.12,,2.12,,0.0,yes,yes,
sanchez2018chimpanzees,2017,7,26,bangolo,8.0,m,focal_participant,,,,,chimpanzee,bangolo_tai,mix,2,3,5,control,4,r,,,bangolo,subject,nonsoc,,0.64,,,,yes,,,,,,0.64,,1.0,yes,,
sanchez2018chimpanzees,2017,7,26,bangolo,8.0,m,focal_participant,,,,,chimpanzee,bangolo_tai,mix,2,3,6,control,2,r,,,bangolo,subject,nonsoc,,1.28,,,,yes,,,,,,1.28,,1.0,yes,,
sanchez2018chimpanzees,2017,7,26,kofi,12.0,m,focal_participant,lome,15.0,m,partner,chimpanzee,lome_kofi,male,1,7,1,test,0,r,l,lome,kofi,partner,get_soc,soc,1.56,0.8,,1.32,yes,yes,,,,2.12,1.56,2.12,,,,yes
sanchez2018chimpanzees,2017,7,26,kofi,12.0,m,focal_participant,lome,15.0,m,partner,chimpanzee,lome_kofi,male,1,7,2,test,4,r,l,lome,kofi,partner,nonsoc,soc,1.08,0.48,,1.16,yes,yes,,,,1.64,1.08,1.64,,,,yes
sanchez2018chimpanzees,2017,7,26,kofi,12.0,m,focal_participant,lome,15.0,m,partner,chimpanzee,lome_kofi,male,1,7,3,test,2,r,l,lome,kofi,partner,get_soc,soc,1,0.64,,1.84,yes,yes,,,,2.48,1,2.48,,,,yes
sanchez2018chimpanzees,2017,7,26,,,,,lome,15.0,m,partner,chimpanzee,lome_kofi,male,1,7,4,control,0,,l,lome,,partner,,soc,,0.64,,1.04,,yes,,,,1.68,,1.68,,,,yes
sanchez2018chimpanzees,2017,7,26,,,,,lome,15.0,m,partner,chimpanzee,lome_kofi,male,1,7,5,control,2,,l,lome,,partner,,soc,,0.08,,2.2,,yes,,,,2.28,,2.28,,,,yes
sanchez2018chimpanzees,2017,7,26,,,,,lome,15.0,m,partner,chimpanzee,lome_kofi,male,1,7,6,control,4,,l,lome,,partner,,soc,,1.88,,1.92,,yes,,,,3.8,,3.8,,,,yes
sanchez2018chimpanzees,2017,7,27,,,,,tai,14.0,f,partner,chimpanzee,bangolo_tai,mix,2,4,1,control,2,,r,,tai,partner,,soc,,1.44,,2.96,,yes,,,,4.4,,4.4,,,,yes
sanchez2018chimpanzees,2017,7,27,,,,,tai,14.0,f,partner,chimpanzee,bangolo_tai,mix,2,4,2,control,4,,r,,tai,partner,,soc,,0.64,,1.48,,yes,,,,2.12,,2.12,,,,yes
sanchez2018chimpanzees,2017,7,27,,,,,tai,14.0,f,partner,chimpanzee,bangolo_tai,mix,2,4,3,control,0,,r,,tai,partner,,soc,,1.16,,1.36,,yes,,,,2.52,,2.52,,,,yes
sanchez2018chimpanzees,2017,7,27,bangolo,8.0,m,focal_participant,tai,14.0,f,partner,chimpanzee,bangolo_tai,mix,2,4,4,test,4,l,r,bangolo,tai,partner,nonsoc,soc,0.84,0.76,,2.52,yes,yes,,,,3.28,0.84,3.28,,,,yes
sanchez2018chimpanzees,2017,7,27,bangolo,8.0,m,focal_participant,tai,14.0,f,partner,chimpanzee,bangolo_tai,mix,2,4,5,test,2,l,r,bangolo,tai,partner,get_soc,soc,1.56,0.2,,1.68,yes,yes,,,,1.88,1.56,1.88,,,,yes
sanchez2018chimpanzees,2017,7,27,bangolo,8.0,m,focal_participant,tai,14.0,f,partner,chimpanzee,bangolo_tai,mix,2,4,6,test,0,l,r,bangolo,tai,partner,get_soc,soc,0.88,0.32,,1.52,yes,yes,,,,1.84,0.88,1.84,,,,yes
sanchez2018chimpanzees,2017,7,28,bangolo,8.0,m,focal_participant,,,,,chimpanzee,bangolo_tai,mix,2,5,1,control,2,l,,bangolo,,subject,nonsoc,,2,,,,yes,,,,,,2,,1.0,yes,,
sanchez2018chimpanzees,2017,7,28,bangolo,8.0,m,focal_participant,,,,,chimpanzee,bangolo_tai,mix,2,5,2,control,0,l,,bangolo,,subject,soc,,0.8,,2.16,,yes,,,,2.96,,2.96,,0.0,yes,yes,
sanchez2018chimpanzees,2017,7,28,bangolo,8.0,m,focal_participant,,,,,chimpanzee,bangolo_tai,mix,2,5,3,control,4,l,,bangolo,,subject,nonsoc,,1,,,,yes,,,,,,1,,1.0,yes,,
sanchez2018chimpanzees,2017,7,28,bangolo,8.0,m,focal_participant,tai,14.0,f,partner,chimpanzee,bangolo_tai,mix,2,5,4,test,0,l,r,bangolo,tai,subject,soc,get_soc,0.72,0.76,1.84,,yes,yes,no,no,2.56,,2.56,0.76,0.0,yes,yes,
sanchez2018chimpanzees,2017,7,28,bangolo,8.0,m,focal_participant,tai,14.0,f,partner,chimpanzee,bangolo_tai,mix,2,5,5,test,4,l,r,bangolo,tai,subject,nonsoc,soc,0.48,2.08,,1.24,yes,yes,,,,3.32,0.48,3.32,1.0,yes,,
sanchez2018chimpanzees,2017,7,28,bangolo,8.0,m,focal_participant,tai,14.0,f,partner,chimpanzee,bangolo_tai,mix,2,5,6,test,2,l,r,bangolo,tai,subject,nonsoc,soc,0.92,1.08,,7.68,yes,yes,no,no,,8.76,0.92,8.76,1.0,yes,,
sanchez2018chimpanzees,2017,7,28,kofi,12.0,m,focal_participant,,,,,chimpanzee,lome_kofi,male,1,8,1,control,2,l,,kofi,,subject,nonsoc,,3.96,,,,yes,,,,,,3.96,,1.0,yes,,
sanchez2018chimpanzees,2017,7,28,kofi,12.0,m,focal_participant,,,,,chimpanzee,lome_kofi,male,1,8,2,control,4,l,,kofi,,subject,nonsoc,,1.12,,,,yes,,,,,,1.12,,1.0,yes,,
sanchez2018chimpanzees,2017,7,28,kofi,12.0,m,focal_participant,,,,,chimpanzee,lome_kofi,male,1,8,3,control,0,l,,kofi,,subject,soc,,0.12,,2.44,,yes,,,,2.56,,2.56,,0.0,yes,yes,
sanchez2018chimpanzees,2017,7,28,kofi,12.0,m,focal_participant,lome,15.0,m,partner,chimpanzee,lome_kofi,male,1,8,4,test,0,l,r,kofi,lome,subject,get_soc,soc,15.32,2.6,,1.4,yes,yes,yes,yes,,4,15.32,4,0.0,no,no,
sanchez2018chimpanzees,2017,7,28,kofi,12.0,m,focal_participant,lome,15.0,m,partner,chimpanzee,lome_kofi,male,1,8,5,test,4,l,r,kofi,lome,subject,nonsoc,soc,0.56,2.84,,0.96,yes,yes,,,,3.8,0.56,3.8,1.0,yes,,
sanchez2018chimpanzees,2017,7,28,kofi,12.0,m,focal_participant,lome,15.0,m,partner,chimpanzee,lome_kofi,male,1,8,6,test,2,l,r,kofi,lome,subject,nonsoc,soc,0.28,1.56,,5.2,yes,yes,no,no,,6.76,0.28,6.76,1.0,yes,,
sanchez2018chimpanzees,2017,8,8,bangolo,8.0,m,focal_participant,tai,15.0,f,partner,chimpanzee,bangolo_tai,mix,2,6,1,test,2,r,l,tai,bangolo,partner,get_soc,soc,0.6,0.84,,2.16,yes,yes,,,,3,0.6,3,,,,yes
sanchez2018chimpanzees,2017,8,8,bangolo,8.0,m,focal_participant,tai,15.0,f,partner,chimpanzee,bangolo_tai,mix,2,6,2,test,4,r,l,tai,bangolo,partner,get_soc,soc,1.48,0.96,,3.32,yes,yes,,,,4.28,1.48,4.28,,,,yes
sanchez2018chimpanzees,2017,8,8,bangolo,8.0,m,focal_participant,tai,15.0,f,partner,chimpanzee,bangolo_tai,mix,2,6,3,test,0,r,l,tai,bangolo,partner,get_soc,soc,0.64,1.08,,1.72,yes,yes,,,,2.8,0.64,2.8,,,,yes
sanchez2018chimpanzees,2017,8,8,,,,,tai,15.0,f,partner,chimpanzee,bangolo_tai,mix,2,6,4,control,4,,l,tai,,partner,,soc,,0.72,,1.08,,yes,,,,1.8,,1.8,,,,yes
sanchez2018chimpanzees,2017,8,8,,,,,tai,15.0,f,partner,chimpanzee,bangolo_tai,mix,2,6,5,control,2,,l,tai,,partner,,soc,,1,,1.12,,yes,,,,2.12,,2.12,,,,yes
sanchez2018chimpanzees,2017,8,8,,,,,tai,15.0,f,partner,chimpanzee,bangolo_tai,mix,2,6,6,control,0,,l,tai,,partner,,soc,,0.32,,1.4,,yes,,,,1.72,,1.72,,,,yes
sanchez2018chimpanzees,2017,8,9,lobo,13.0,m,focal_participant,kofi,12.0,m,partner,chimpanzee,kofi_lobo,male,2,1,1,test,2,l,r,lobo,kofi,subject,nonsoc,soc,1.72,1.6,,5.68,yes,yes,no,no,,7.28,1.72,7.28,1.0,yes,,
sanchez2018chimpanzees,2017,8,9,lobo,13.0,m,focal_participant,kofi,12.0,m,partner,chimpanzee,kofi_lobo,male,2,1,2,test,0,l,r,lobo,kofi,subject,get_soc,soc,14.64,0.92,,1.92,yes,yes,yes,yes,,2.84,14.64,2.84,0.0,no,no,
sanchez2018chimpanzees,2017,8,9,lobo,13.0,m,focal_participant,kofi,12.0,m,partner,chimpanzee,kofi_lobo,male,2,1,3,test,4,l,r,lobo,kofi,subject,nonsoc,soc,1,4.28,,,yes,no,,,,,1,4.28,1.0,yes,,
sanchez2018chimpanzees,2017,8,9,lobo,13.0,m,focal_participant,,,,,chimpanzee,kofi_lobo,male,2,1,4,control,2,l,,lobo,,subject,nonsoc,,4.08,,,,yes,,,,,,4.08,,1.0,yes,,
sanchez2018chimpanzees,2017,8,9,lobo,13.0,m,focal_participant,,,,,chimpanzee,kofi_lobo,male,2,1,5,control,4,l,,lobo,,subject,nonsoc,,1.04,,,,yes,,,,,,1.04,,1.0,yes,,
sanchez2018chimpanzees,2017,8,9,lobo,13.0,m,focal_participant,,,,,chimpanzee,kofi_lobo,male,2,1,6,control,0,l,,lobo,,subject,soc,,2.16,,3.04,,yes,,,,5.2,,5.2,,0.0,yes,yes,
sanchez2018chimpanzees,2017,8,9,frodo,23.0,m,focal_participant,lome,16.0,m,partner,chimpanzee,frodo_lome,male,2,1,1,test,2,l,r,frodo,lome,subject,nonsoc,soc,1.2,1.24,,1.44,yes,yes,no,no,,2.68,1.2,2.68,1.0,yes,,
sanchez2018chimpanzees,2017,8,9,frodo,23.0,m,focal_participant,lome,16.0,m,partner,chimpanzee,frodo_lome,male,2,1,2,test,4,l,r,frodo,lome,subject,nonsoc,soc,0.92,1.04,,3.44,yes,yes,,,,4.48,0.92,4.48,1.0,yes,,
sanchez2018chimpanzees,2017,8,9,frodo,23.0,m,focal_participant,lome,16.0,m,partner,chimpanzee,frodo_lome,male,2,1,3,test,0,l,r,frodo,lome,subject,get_soc,soc,17.68,1.52,,1.68,yes,yes,yes,yes,,3.2,17.68,3.2,0.0,no,no,
sanchez2018chimpanzees,2017,8,9,frodo,23.0,m,focal_participant,,,,,chimpanzee,frodo_lome,male,2,1,4,control,2,l,,frodo,,subject,nonsoc,,0.8,,,,yes,,,,,,0.8,,1.0,yes,,
sanchez2018chimpanzees,2017,8,9,frodo,23.0,m,focal_participant,,,,,chimpanzee,frodo_lome,male,2,1,5,control,0,l,,frodo,,subject,soc,,9.48,,3.4,,yes,,,,12.88,,12.88,,0.0,yes,yes,
sanchez2018chimpanzees,2017,8,9,frodo,23.0,m,focal_participant,,,,,chimpanzee,frodo_lome,male,2,1,6,control,4,l,,frodo,,subject,nonsoc,,1.08,,,,yes,,,,,,1.08,,1.0,yes,,
sanchez2018chimpanzees,2017,8,9,bangolo,8.0,m,focal_participant,tai,15.0,f,partner,chimpanzee,bangolo_tai,mix,2,7,1,test,4,l,r,bangolo,tai,subject,nonsoc,soc,0.4,0.08,,1.36,yes,yes,,,,1.44,0.4,1.44,1.0,yes,,
sanchez2018chimpanzees,2017,8,9,bangolo,8.0,m,focal_participant,tai,15.0,f,partner,chimpanzee,bangolo_tai,mix,2,7,2,test,0,l,r,bangolo,tai,subject,soc,get_soc,1,1.2,1.2,,yes,yes,no,no,2.2,,2.2,1.2,0.0,yes,yes,
sanchez2018chimpanzees,2017,8,9,bangolo,8.0,m,focal_participant,tai,15.0,f,partner,chimpanzee,bangolo_tai,mix,2,7,3,test,2,l,r,bangolo,tai,subject,nonsoc,soc,1.4,0.08,,1.4,yes,yes,no,no,,1.48,1.4,1.48,1.0,yes,,
sanchez2018chimpanzees,2017,8,9,bangolo,8.0,m,focal_participant,,,,,chimpanzee,bangolo_tai,mix,2,7,4,control,0,l,,bangolo,,subject,soc,,0.8,,1.72,,yes,,,,2.52,,2.52,,0.0,yes,yes,
sanchez2018chimpanzees,2017,8,9,bangolo,8.0,m,focal_participant,,,,,chimpanzee,bangolo_tai,mix,2,7,5,control,4,l,,bangolo,,subject,nonsoc,,1.12,,,,yes,,,,,,1.12,,1.0,yes,,
sanchez2018chimpanzees,2017,8,9,bangolo,8.0,m,focal_participant,,,,,chimpanzee,bangolo_tai,mix,2,7,6,control,2,l,,bangolo,,subject,nonsoc,,1.36,,,,yes,,,,,,1.36,,1.0,yes,,
sanchez2018chimpanzees,2017,8,10,,,,,lome,16.0,m,partner,chimpanzee,frodo_lome,male,2,2,1,control,0,,l,lome,,partner,,soc,,1.2,,1.28,,yes,,,,2.48,,2.48,,,,yes
sanchez2018chimpanzees,2017,8,10,,,,,lome,16.0,m,partner,chimpanzee,frodo_lome,male,2,2,2,control,4,,l,lome,,partner,,soc,,0.76,,1.12,,yes,,,,1.88,,1.88,,,,yes
sanchez2018chimpanzees,2017,8,10,,,,,lome,16.0,m,partner,chimpanzee,frodo_lome,male,2,2,3,control,2,,l,lome,,partner,,soc,,1.4,,1.08,,yes,,,,2.48,,2.48,,,,yes
sanchez2018chimpanzees,2017,8,10,frodo,23.0,m,focal_participant,lome,16.0,m,partner,chimpanzee,frodo_lome,male,2,2,4,test,4,r,l,lome,frodo,partner,get_soc,soc,1.48,0.44,,6.12,yes,yes,,,,6.56,1.48,6.56,,,,yes
sanchez2018chimpanzees,2017,8,10,frodo,23.0,m,focal_participant,lome,16.0,m,partner,chimpanzee,frodo_lome,male,2,2,5,test,2,r,l,lome,frodo,partner,get_soc,soc,1.76,0.72,,1.2,yes,yes,,,,1.92,1.76,1.92,,,,yes
sanchez2018chimpanzees,2017,8,10,frodo,23.0,m,focal_participant,lome,16.0,m,partner,chimpanzee,frodo_lome,male,2,2,6,test,0,r,l,lome,frodo,partner,get_soc,soc,1.64,1.36,,2.24,yes,yes,,,,3.6,1.64,3.6,,,,yes
sanchez2018chimpanzees,2017,8,10,,,,,tai,15.0,f,partner,chimpanzee,bangolo_tai,mix,2,8,1,control,4,,l,tai,,partner,,soc,,1.52,,1.16,,yes,,,,2.68,,2.68,,,,yes
sanchez2018chimpanzees,2017,8,10,,,,,tai,15.0,f,partner,chimpanzee,bangolo_tai,mix,2,8,2,control,2,,l,tai,,partner,,soc,,0.76,,3.4,,yes,,,,4.16,,4.16,,,,yes
sanchez2018chimpanzees,2017,8,10,,,,,tai,15.0,f,partner,chimpanzee,bangolo_tai,mix,2,8,3,control,0,,l,tai,,partner,,soc,,0.88,,1.16,,yes,,,,2.04,,2.04,,,,yes
sanchez2018chimpanzees,2017,8,10,bangolo,8.0,m,focal_participant,tai,15.0,f,partner,chimpanzee,bangolo_tai,mix,2,8,4,test,0,r,l,tai,bangolo,partner,get_soc,soc,0.76,0.48,,2.36,yes,yes,,,,2.84,0.76,2.84,,,,yes
sanchez2018chimpanzees,2017,8,10,bangolo,8.0,m,focal_participant,tai,15.0,f,partner,chimpanzee,bangolo_tai,mix,2,8,5,test,4,r,l,tai,bangolo,partner,nonsoc,soc,0.56,0.52,,1.04,yes,yes,,,,1.56,0.56,1.56,,,,yes
sanchez2018chimpanzees,2017,8,10,bangolo,8.0,m,focal_participant,tai,15.0,f,partner,chimpanzee,bangolo_tai,mix,2,8,6,test,2,r,l,tai,bangolo,partner,nonsoc,soc,0.28,0.8,,2.28,yes,yes,,,,3.08,0.28,3.08,,,,yes
sanchez2018chimpanzees,2017,8,10,,,,,kofi,12.0,m,partner,chimpanzee,kofi_lobo,male,2,2,1,control,4,,l,kofi,,partner,,soc,,0.36,,3.8,,yes,,,,4.16,,4.16,,,,yes
sanchez2018chimpanzees,2017,8,10,,,,,kofi,12.0,m,partner,chimpanzee,kofi_lobo,male,2,2,2,control,2,,l,kofi,,partner,,soc,,1.36,,2.24,,yes,,,,3.6,,3.6,,,,yes
sanchez2018chimpanzees,2017,8,10,,,,,kofi,12.0,m,partner,chimpanzee,kofi_lobo,male,2,2,3,control,0,,l,kofi,,partner,,soc,,1.28,,3.72,,yes,,,,5,,5,,,,yes
sanchez2018chimpanzees,2017,8,10,lobo,13.0,m,focal_participant,kofi,12.0,m,partner,chimpanzee,kofi_lobo,male,2,2,4,test,2,r,l,kofi,lobo,partner,nonsoc,no,1.96,,,,yes,no,,,,,1.96,,,,,no
sanchez2018chimpanzees,2017,8,10,lobo,13.0,m,focal_participant,kofi,12.0,m,partner,chimpanzee,kofi_lobo,male,2,2,5,test,0,r,l,kofi,lobo,partner,get_soc,soc,1.32,0.76,,1.88,yes,yes,,,,2.64,1.32,2.64,,,,yes
sanchez2018chimpanzees,2017,8,10,lobo,13.0,m,focal_participant,kofi,12.0,m,partner,chimpanzee,kofi_lobo,male,2,2,6,test,4,r,l,kofi,lobo,partner,nonsoc,soc,2.64,0.44,,5,yes,yes,,,,5.44,2.64,5.44,,,,yes
sanchez2018chimpanzees,2017,8,11,lobo,13.0,m,focal_participant,,,,,chimpanzee,kofi_lobo,male,2,3,1,control,2,l,,lobo,,subject,nonsoc,,0.92,,,,yes,,,,,,0.92,,1.0,yes,,
sanchez2018chimpanzees,2017,8,11,lobo,13.0,m,focal_participant,,,,,chimpanzee,kofi_lobo,male,2,3,2,control,0,l,,lobo,,subject,soc,,1.12,,1.68,,yes,,,,2.8,,2.8,,0.0,yes,yes,
sanchez2018chimpanzees,2017,8,11,lobo,13.0,m,focal_participant,,,,,chimpanzee,kofi_lobo,male,2,3,3,control,4,l,,lobo,,subject,nonsoc,,0.8,,,,yes,,,,,,0.8,,1.0,yes,,
sanchez2018chimpanzees,2017,8,11,lobo,13.0,m,focal_participant,kofi,12.0,m,partner,chimpanzee,kofi_lobo,male,2,3,4,test,4,l,r,lobo,kofi,subject,nonsoc,soc,0.72,1,,1.44,yes,yes,no,no,,2.44,0.72,2.44,1.0,yes,,
sanchez2018chimpanzees,2017,8,11,lobo,13.0,m,focal_participant,kofi,12.0,m,partner,chimpanzee,kofi_lobo,male,2,3,5,test,2,l,r,lobo,kofi,subject,get_soc,soc,9.8,1,,1.24,yes,yes,,,,2.24,9.8,2.24,0.0,yes,no,
sanchez2018chimpanzees,2017,8,11,lobo,13.0,m,focal_participant,kofi,12.0,m,partner,chimpanzee,kofi_lobo,male,2,3,6,test,0,l,r,lobo,kofi,subject,soc,no,9.28,,,,no,no,no,yes,,,9.28,,0.0,yes,no,
sanchez2018chimpanzees,2017,8,11,frodo,23.0,m,focal_participant,,,,,chimpanzee,frodo_lome,male,2,3,1,control,0,l,,frodo,,subject,no,,,,,,no,,,,,,,,1.0,no,,
sanchez2018chimpanzees,2017,8,11,frodo,23.0,m,focal_participant,,,,,chimpanzee,frodo_lome,male,2,3,2,control,4,l,,frodo,,subject,nonsoc,,1.2,,,,yes,,,,,,1.2,,1.0,yes,,
sanchez2018chimpanzees,2017,8,11,frodo,23.0,m,focal_participant,,,,,chimpanzee,frodo_lome,male,2,3,3,control,2,l,,frodo,,subject,nonsoc,,1.08,,,,yes,,,,,,1.08,,1.0,yes,,
sanchez2018chimpanzees,2017,8,11,frodo,23.0,m,focal_participant,lome,16.0,m,partner,chimpanzee,frodo_lome,male,2,3,4,test,4,l,r,frodo,lome,subject,nonsoc,soc,0.84,2,,4.6,yes,yes,,,,6.6,0.84,6.6,1.0,yes,,
sanchez2018chimpanzees,2017,8,11,frodo,23.0,m,focal_participant,lome,16.0,m,partner,chimpanzee,frodo_lome,male,2,3,5,test,0,l,r,frodo,lome,subject,get_soc,soc,20.08,2.12,,0.88,yes,yes,yes,yes,,3,20.08,3,0.0,no,no,
sanchez2018chimpanzees,2017,8,11,frodo,23.0,m,focal_participant,lome,16.0,m,partner,chimpanzee,frodo_lome,male,2,3,6,test,2,l,r,frodo,lome,subject,nonsoc,soc,1.16,1.72,,1.12,yes,yes,no,no,,2.84,1.16,2.84,1.0,yes,,
sanchez2018chimpanzees,2017,8,11,,,,,bangolo,8.0,m,partner,chimpanzee,bangolo_tai,mix,2,1,1,control,0,,r,,bangolo,partner,,soc,,0.64,,0.64,,yes,,,,1.28,,1.28,,,,yes
sanchez2018chimpanzees,2017,8,11,,,,,bangolo,8.0,m,partner,chimpanzee,bangolo_tai,mix,2,1,2,control,4,,r,,bangolo,partner,,soc,,3.12,,0.96,,yes,,,,4.08,,4.08,,,,yes
sanchez2018chimpanzees,2017,8,11,,,,,bangolo,8.0,m,partner,chimpanzee,bangolo_tai,mix,2,1,3,control,2,,r,,bangolo,partner,,soc,,0.76,,2.12,,yes,,,,2.88,,2.88,,,,yes
sanchez2018chimpanzees,2017,8,11,tai,15.0,f,focal_participant,bangolo,8.0,m,partner,chimpanzee,bangolo_tai,mix,2,1,4,test,4,l,r,tai,bangolo,partner,nonsoc,soc,1.72,17.68,,1.36,yes,yes,,,,19.04,1.72,19.04,,,,no
sanchez2018chimpanzees,2017,8,11,tai,15.0,f,focal_participant,bangolo,8.0,m,partner,chimpanzee,bangolo_tai,mix,2,1,5,test,0,l,r,tai,bangolo,partner,get_soc,soc,0.76,0.88,,1.12,yes,yes,,,,2,0.76,2,,,,yes
sanchez2018chimpanzees,2017,8,11,tai,15.0,f,focal_participant,bangolo,8.0,m,partner,chimpanzee,bangolo_tai,mix,2,1,6,test,2,l,r,tai,bangolo,partner,nonsoc,soc,0.32,1.28,,1.48,yes,yes,,,,2.76,0.32,2.76,,,,yes
sanchez2018chimpanzees,2017,8,12,lobo,13.0,m,focal_participant,kofi,12.0,m,partner,chimpanzee,kofi_lobo,male,2,4,1,test,0,r,l,kofi,lobo,partner,get_soc,soc,1,0.52,,6.88,yes,yes,,,,7.4,1,7.4,,,,yes
sanchez2018chimpanzees,2017,8,12,lobo,13.0,m,focal_participant,kofi,12.0,m,partner,chimpanzee,kofi_lobo,male,2,4,2,test,4,r,l,kofi,lobo,partner,nonsoc,soc,2.12,14.08,,4.84,yes,yes,,,,18.92,2.12,18.92,,,,no
sanchez2018chimpanzees,2017,8,12,lobo,13.0,m,focal_participant,kofi,12.0,m,partner,chimpanzee,kofi_lobo,male,2,4,3,test,2,r,l,kofi,lobo,partner,get_soc,soc,1.48,2.4,,6.12,yes,yes,,,,8.52,1.48,8.52,,,,yes
sanchez2018chimpanzees,2017,8,12,,,,,kofi,12.0,m,partner,chimpanzee,kofi_lobo,male,2,4,4,control,4,,l,kofi,,partner,,soc,,6.36,,1.72,,yes,,,,8.08,,8.08,,,,yes
sanchez2018chimpanzees,2017,8,12,,,,,kofi,12.0,m,partner,chimpanzee,kofi_lobo,male,2,4,5,control,0,,l,kofi,,partner,,soc,,0.88,,2.88,,yes,,,,3.76,,3.76,,,,yes
sanchez2018chimpanzees,2017,8,12,,,,,kofi,12.0,m,partner,chimpanzee,kofi_lobo,male,2,4,6,control,2,,l,kofi,,partner,,soc,,1.36,,2.92,,yes,,,,4.28,,4.28,,,,yes
sanchez2018chimpanzees,2017,8,12,frodo,23.0,m,focal_participant,lome,16.0,m,partner,chimpanzee,frodo_lome,male,2,4,1,test,4,r,l,lome,frodo,partner,get_soc,soc,0.76,1.44,,1.2,yes,yes,,,,2.64,0.76,2.64,,,,yes
sanchez2018chimpanzees,2017,8,12,frodo,23.0,m,focal_participant,lome,16.0,m,partner,chimpanzee,frodo_lome,male,2,4,2,test,2,r,l,lome,frodo,partner,get_soc,soc,0.92,0.68,,1.4,yes,yes,,,,2.08,0.92,2.08,,,,yes
sanchez2018chimpanzees,2017,8,12,frodo,23.0,m,focal_participant,lome,16.0,m,partner,chimpanzee,frodo_lome,male,2,4,3,test,0,r,l,lome,frodo,partner,get_soc,soc,1.12,0.4,,3.12,yes,yes,,,,3.52,1.12,3.52,,,,yes
sanchez2018chimpanzees,2017,8,12,,,,,lome,16.0,m,partner,chimpanzee,frodo_lome,male,2,4,4,control,4,,l,lome,,partner,,soc,,0.76,,1.88,,yes,,,,2.64,,2.64,,,,yes
sanchez2018chimpanzees,2017,8,12,,,,,lome,16.0,m,partner,chimpanzee,frodo_lome,male,2,4,5,control,2,,l,lome,,partner,,soc,,0.8,,1.44,,yes,,,,2.24,,2.24,,,,yes
sanchez2018chimpanzees,2017,8,12,,,,,lome,16.0,m,partner,chimpanzee,frodo_lome,male,2,4,6,control,0,,l,lome,,partner,,soc,,0.24,,5.8,,yes,,,,6.04,,6.04,,,,yes
sanchez2018chimpanzees,2017,8,12,tai,15.0,f,focal_participant,bangolo,8.0,m,partner,chimpanzee,bangolo_tai,mix,2,2,1,test,2,r,l,bangolo,tai,subject,nonsoc,soc,1.36,0.68,,1.28,yes,yes,no,no,,1.96,1.36,1.96,1.0,yes,,
sanchez2018chimpanzees,2017,8,12,tai,15.0,f,focal_participant,bangolo,8.0,m,partner,chimpanzee,bangolo_tai,mix,2,2,2,test,4,r,l,bangolo,tai,subject,nonsoc,soc,1.6,1.28,,1.48,yes,yes,,,,2.76,1.6,2.76,1.0,yes,,
sanchez2018chimpanzees,2017,8,12,tai,15.0,f,focal_participant,bangolo,8.0,m,partner,chimpanzee,bangolo_tai,mix,2,2,3,test,0,r,l,bangolo,tai,subject,soc,get_soc,0.88,0.12,1.16,,yes,yes,no,no,2.04,,2.04,0.12,0.0,yes,yes,
sanchez2018chimpanzees,2017,8,12,tai,15.0,f,focal_participant,,,,,chimpanzee,bangolo_tai,mix,2,2,4,control,4,r,,,tai,subject,nonsoc,,2.68,,,,yes,,,,,,2.68,,1.0,yes,,
sanchez2018chimpanzees,2017,8,12,tai,15.0,f,focal_participant,,,,,chimpanzee,bangolo_tai,mix,2,2,5,control,2,r,,,tai,subject,nonsoc,,3.04,,,,yes,,,,,,3.04,,1.0,yes,,
sanchez2018chimpanzees,2017,8,12,tai,15.0,f,focal_participant,,,,,chimpanzee,bangolo_tai,mix,2,2,6,control,0,r,,,tai,subject,soc,,1.8,,2.84,,yes,,,,4.64,,4.64,,0.0,yes,yes,
sanchez2018chimpanzees,2017,8,13,frodo,23.0,m,focal_participant,lome,16.0,m,partner,chimpanzee,frodo_lome,male,2,5,1,test,0,r,l,lome,frodo,subject,no,soc,,0.88,,1.84,no,yes,no,no,,2.72,,2.72,1.0,no,,
sanchez2018chimpanzees,2017,8,13,frodo,23.0,m,focal_participant,lome,16.0,m,partner,chimpanzee,frodo_lome,male,2,5,2,test,4,r,l,lome,frodo,subject,nonsoc,soc,2.72,0.68,,2.64,yes,yes,,,,3.32,2.72,3.32,1.0,yes,,
sanchez2018chimpanzees,2017,8,13,frodo,23.0,m,focal_participant,lome,16.0,m,partner,chimpanzee,frodo_lome,male,2,5,3,test,2,r,l,lome,frodo,subject,nonsoc,soc,5.08,0.2,,6.92,yes,yes,no,no,,7.12,5.08,7.12,1.0,yes,,
sanchez2018chimpanzees,2017,8,13,frodo,23.0,m,focal_participant,,,,,chimpanzee,frodo_lome,male,2,5,4,control,0,r,,,frodo,subject,no,,,,,,no,,no,no,,,,,1.0,no,,
sanchez2018chimpanzees,2017,8,13,frodo,23.0,m,focal_participant,,,,,chimpanzee,frodo_lome,male,2,5,5,control,2,r,,,frodo,subject,nonsoc,,0.88,,,,yes,,,,,,0.88,,1.0,yes,,
sanchez2018chimpanzees,2017,8,13,frodo,23.0,m,focal_participant,,,,,chimpanzee,frodo_lome,male,2,5,6,control,4,r,,,frodo,subject,nonsoc,,2.48,,,,yes,,,,,,2.48,,1.0,yes,,
sanchez2018chimpanzees,2017,8,13,lobo,13.0,m,focal_participant,kofi,12.0,m,partner,chimpanzee,kofi_lobo,male,2,5,1,test,2,r,l,kofi,lobo,subject,nonsoc,soc,1.12,0.6,,2.4,yes,yes,no,no,,3,1.12,3,1.0,yes,,
sanchez2018chimpanzees,2017,8,13,lobo,13.0,m,focal_participant,kofi,12.0,m,partner,chimpanzee,kofi_lobo,male,2,5,2,test,4,r,l,kofi,lobo,subject,nonsoc,soc,1.08,1.24,,1.48,yes,yes,,,,2.72,1.08,2.72,1.0,yes,,
sanchez2018chimpanzees,2017,8,13,lobo,13.0,m,focal_participant,kofi,12.0,m,partner,chimpanzee,kofi_lobo,male,2,5,3,test,0,r,l,kofi,lobo,subject,get_soc,soc,2.16,2.44,,3.08,yes,yes,no,yes,,5.52,2.16,5.52,0.0,yes,no,
sanchez2018chimpanzees,2017,8,13,lobo,13.0,m,focal_participant,,,,,chimpanzee,kofi_lobo,male,2,5,4,control,0,r,,,lobo,subject,soc,,0.6,,1.8,,yes,,,,2.4,,2.4,,0.0,yes,yes,
sanchez2018chimpanzees,2017,8,13,lobo,13.0,m,focal_participant,,,,,chimpanzee,kofi_lobo,male,2,5,5,control,4,r,,,lobo,subject,nonsoc,,2.36,,,,yes,,,,,,2.36,,1.0,yes,,
sanchez2018chimpanzees,2017,8,13,lobo,13.0,m,focal_participant,,,,,chimpanzee,kofi_lobo,male,2,5,6,control,2,r,,,lobo,subject,nonsoc,,3,,,,yes,,,,,,3,,1.0,yes,,
sanchez2018chimpanzees,2017,8,13,tai,15.0,f,focal_participant,bangolo,8.0,m,partner,chimpanzee,bangolo_tai,mix,2,3,1,test,2,l,r,tai,bangolo,partner,get_soc,soc,4.92,11.88,,1.32,yes,yes,,,,13.2,4.92,13.2,,,,yes
sanchez2018chimpanzees,2017,8,13,tai,15.0,f,focal_participant,bangolo,8.0,m,partner,chimpanzee,bangolo_tai,mix,2,3,2,test,0,l,r,tai,bangolo,partner,get_soc,soc,0.4,1.4,,1.28,yes,yes,,,,2.68,0.4,2.68,,,,yes
sanchez2018chimpanzees,2017,8,13,tai,15.0,f,focal_participant,bangolo,8.0,m,partner,chimpanzee,bangolo_tai,mix,2,3,3,test,4,l,r,tai,bangolo,partner,nonsoc,soc,2.72,2.12,,0.96,yes,yes,,,,3.08,2.72,3.08,,,,yes
sanchez2018chimpanzees,2017,8,13,,,,,bangolo,8.0,m,partner,chimpanzee,bangolo_tai,mix,2,3,4,control,4,,r,,bangolo,partner,,soc,,0.64,,0.96,,yes,,,,1.6,,1.6,,,,yes
sanchez2018chimpanzees,2017,8,13,,,,,bangolo,8.0,m,partner,chimpanzee,bangolo_tai,mix,2,3,5,control,2,,r,,bangolo,partner,,soc,,1.48,,1.72,,yes,,,,3.2,,3.2,,,,yes
sanchez2018chimpanzees,2017,8,13,,,,,bangolo,8.0,m,partner,chimpanzee,bangolo_tai,mix,2,3,6,control,0,,r,,bangolo,partner,,soc,,0.52,,3.84,,yes,,,,4.36,,4.36,,,,yes
sanchez2018chimpanzees,2017,8,14,tai,15.0,f,focal_participant,,,,,chimpanzee,bangolo_tai,mix,2,4,1,control,2,r,,,tai,subject,nonsoc,,2.32,,,,yes,,,,,,2.32,,1.0,yes,,
sanchez2018chimpanzees,2017,8,14,tai,15.0,f,focal_participant,,,,,chimpanzee,bangolo_tai,mix,2,4,2,control,0,r,,,tai,subject,soc,,0.84,,1.8,,yes,,,,2.64,,2.64,,0.0,yes,yes,
sanchez2018chimpanzees,2017,8,14,tai,15.0,f,focal_participant,,,,,chimpanzee,bangolo_tai,mix,2,4,3,control,4,r,,,tai,subject,nonsoc,,1.88,,,,yes,,,,,,1.88,,1.0,yes,,
sanchez2018chimpanzees,2017,8,14,tai,15.0,f,focal_participant,bangolo,8.0,m,partner,chimpanzee,bangolo_tai,mix,2,4,4,test,0,r,l,bangolo,tai,subject,soc,get_soc,1.32,0.68,3.64,,yes,yes,no,no,4.96,,4.96,0.68,0.0,yes,yes,
sanchez2018chimpanzees,2017,8,14,tai,15.0,f,focal_participant,bangolo,8.0,m,partner,chimpanzee,bangolo_tai,mix,2,4,5,test,2,r,l,bangolo,tai,subject,soc,nonsoc,2.32,3.92,1.08,,yes,yes,no,no,3.4,,3.4,3.92,0.0,yes,yes,
sanchez2018chimpanzees,2017,8,14,tai,15.0,f,focal_participant,bangolo,8.0,m,partner,chimpanzee,bangolo_tai,mix,2,4,6,test,4,r,l,bangolo,tai,subject,soc,nonsoc,1.68,0.96,2.16,,yes,yes,,,3.84,,3.84,0.96,0.0,yes,yes,
sanchez2018chimpanzees,2017,8,14,,,,,kofi,12.0,m,partner,chimpanzee,kofi_lobo,male,2,6,1,control,0,,r,,kofi,partner,,soc,,1.64,,1.08,,yes,,,,2.72,,2.72,,,,yes
sanchez2018chimpanzees,2017,8,14,,,,,kofi,12.0,m,partner,chimpanzee,kofi_lobo,male,2,6,2,control,2,,r,,kofi,partner,,soc,,1.24,,0.96,,yes,,,,2.2,,2.2,,,,yes
sanchez2018chimpanzees,2017,8,14,,,,,kofi,12.0,m,partner,chimpanzee,kofi_lobo,male,2,6,3,control,4,,r,,kofi,partner,,soc,,1.08,,1.16,,yes,,,,2.24,,2.24,,,,yes
sanchez2018chimpanzees,2017,8,14,lobo,13.0,m,focal_participant,kofi,12.0,m,partner,chimpanzee,kofi_lobo,male,2,6,4,test,2,l,r,lobo,kofi,partner,get_soc,soc,0.68,0.8,,1.08,yes,yes,,,,1.88,0.68,1.88,,,,yes
sanchez2018chimpanzees,2017,8,14,lobo,13.0,m,focal_participant,kofi,12.0,m,partner,chimpanzee,kofi_lobo,male,2,6,5,test,0,l,r,lobo,kofi,partner,soc,soc,3.32,9.24,,,no,no,,,,,3.32,9.24,,,,no
sanchez2018chimpanzees,2017,8,14,lobo,13.0,m,focal_participant,kofi,12.0,m,partner,chimpanzee,kofi_lobo,male,2,6,6,test,4,l,r,lobo,kofi,partner,nonsoc,soc,3.64,14.84,,3.04,yes,yes,,,,17.88,3.64,17.88,,,,no
sanchez2018chimpanzees,2017,8,14,,,,,lome,16.0,m,partner,chimpanzee,frodo_lome,male,2,6,1,control,4,,r,,lome,partner,,soc,,2.2,,1.16,,yes,,,,3.36,,3.36,,,,yes
sanchez2018chimpanzees,2017,8,14,,,,,lome,16.0,m,partner,chimpanzee,frodo_lome,male,2,6,2,control,0,,r,,lome,partner,,soc,,4.44,,1.28,,yes,,,,5.72,,5.72,,,,yes
sanchez2018chimpanzees,2017,8,14,,,,,lome,16.0,m,partner,chimpanzee,frodo_lome,male,2,6,3,control,2,,r,,lome,partner,,soc,,2.96,,1.24,,yes,,,,4.2,,4.2,,,,yes
sanchez2018chimpanzees,2017,8,14,frodo,23.0,m,focal_participant,lome,16.0,m,partner,chimpanzee,frodo_lome,male,2,6,4,test,0,l,r,frodo,lome,partner,get_soc,soc,1.04,4.44,,1.88,yes,yes,,,,6.32,1.04,6.32,,,,yes
sanchez2018chimpanzees,2017,8,14,frodo,23.0,m,focal_participant,lome,16.0,m,partner,chimpanzee,frodo_lome,male,2,6,5,test,2,l,r,frodo,lome,partner,get_soc,soc,1.6,4.12,,1.52,yes,yes,,,,5.64,1.6,5.64,,,,yes
sanchez2018chimpanzees,2017,8,14,frodo,23.0,m,focal_participant,lome,16.0,m,partner,chimpanzee,frodo_lome,male,2,6,6,test,4,l,r,frodo,lome,partner,get_soc,soc,0.96,3.36,,2.8,yes,yes,,,,6.16,0.96,6.16,,,,yes
sanchez2018chimpanzees,2017,8,16,,,,,bangolo,8.0,m,partner,chimpanzee,bangolo_tai,mix,2,5,1,control,2,,l,bangolo,,partner,,soc,,1.6,,2.28,,yes,,,,3.88,,3.88,,,,yes
sanchez2018chimpanzees,2017,8,16,,,,,bangolo,8.0,m,partner,chimpanzee,bangolo_tai,mix,2,5,2,control,4,,l,bangolo,,partner,,soc,,8.4,,1.56,,yes,,,,9.96,,9.96,,,,yes
sanchez2018chimpanzees,2017,8,16,,,,,bangolo,8.0,m,partner,chimpanzee,bangolo_tai,mix,2,5,3,control,0,,l,bangolo,,partner,,soc,,0.68,,1.32,,yes,,,,2,,2,,,,yes
sanchez2018chimpanzees,2017,8,16,tai,15.0,f,focal_participant,bangolo,8.0,m,partner,chimpanzee,bangolo_tai,mix,2,5,4,test,0,r,l,bangolo,tai,partner,get_soc,soc,0.76,1.08,,3.84,yes,yes,,,,4.92,0.76,4.92,,,,yes
sanchez2018chimpanzees,2017,8,16,tai,15.0,f,focal_participant,bangolo,8.0,m,partner,chimpanzee,bangolo_tai,mix,2,5,5,test,2,r,l,bangolo,tai,partner,nonsoc,soc,1.64,2.64,,2.72,yes,yes,,,,5.36,1.64,5.36,,,,yes
sanchez2018chimpanzees,2017,8,16,tai,15.0,f,focal_participant,bangolo,8.0,m,partner,chimpanzee,bangolo_tai,mix,2,5,6,test,4,r,l,bangolo,tai,partner,nonsoc,soc,3.08,0.6,,2.32,yes,yes,,,,2.92,3.08,2.92,,,,yes
sanchez2018chimpanzees,2017,8,19,tai,15.0,f,focal_participant,bangolo,8.0,m,partner,chimpanzee,bangolo_tai,mix,2,6,1,test,4,l,r,tai,bangolo,subject,nonsoc,soc,1,0.52,,1.68,yes,yes,,,,2.2,1,2.2,1.0,yes,,
sanchez2018chimpanzees,2017,8,19,tai,15.0,f,focal_participant,bangolo,8.0,m,partner,chimpanzee,bangolo_tai,mix,2,6,2,test,2,l,r,tai,bangolo,subject,nonsoc,soc,5.88,0.92,,0.92,yes,yes,no,no,,1.84,5.88,1.84,1.0,yes,,
sanchez2018chimpanzees,2017,8,19,tai,15.0,f,focal_participant,bangolo,8.0,m,partner,chimpanzee,bangolo_tai,mix,2,6,3,test,0,l,r,tai,bangolo,subject,soc,get_soc,1,0.88,3.24,,yes,yes,no,no,4.24,,4.24,0.88,0.0,yes,yes,
sanchez2018chimpanzees,2017,8,19,tai,15.0,f,focal_participant,,,,,chimpanzee,bangolo_tai,mix,2,6,4,control,2,l,,tai,,subject,nonsoc,,4.28,,,,yes,,,,,,4.28,,1.0,yes,,
sanchez2018chimpanzees,2017,8,19,tai,15.0,f,focal_participant,,,,,chimpanzee,bangolo_tai,mix,2,6,5,control,4,l,,tai,,subject,nonsoc,,1.12,,,,yes,,,,,,1.12,,1.0,yes,,
sanchez2018chimpanzees,2017,8,19,tai,15.0,f,focal_participant,,,,,chimpanzee,bangolo_tai,mix,2,6,6,control,0,l,,tai,,subject,soc,,1.2,,1.08,,yes,,,,2.28,,2.28,,0.0,yes,yes,
sanchez2018chimpanzees,2017,8,16,frodo,23.0,m,focal_participant,,,,,chimpanzee,frodo_lome,male,2,7,1,control,4,r,,,frodo,subject,nonsoc,,2.36,,,,yes,,,,,,2.36,,1.0,yes,,
sanchez2018chimpanzees,2017,8,16,frodo,23.0,m,focal_participant,,,,,chimpanzee,frodo_lome,male,2,7,2,control,0,r,,,frodo,subject,no,,,,,,no,,,,,,,,1.0,no,,
sanchez2018chimpanzees,2017,8,16,frodo,23.0,m,focal_participant,,,,,chimpanzee,frodo_lome,male,2,7,3,control,2,r,,,frodo,subject,nonsoc,,2.24,,,,yes,,,,,,2.24,,1.0,yes,,
sanchez2018chimpanzees,2017,8,16,frodo,23.0,m,focal_participant,lome,16.0,m,partner,chimpanzee,frodo_lome,male,2,7,4,test,0,r,l,lome,frodo,subject,get_soc,soc,18.84,0.84,,4.24,yes,yes,yes,yes,,5.08,18.84,5.08,0.0,no,no,
sanchez2018chimpanzees,2017,8,16,frodo,23.0,m,focal_participant,lome,16.0,m,partner,chimpanzee,frodo_lome,male,2,7,5,test,4,r,l,lome,frodo,subject,nonsoc,no,1.28,,,,yes,no,,,,,1.28,,1.0,yes,,
sanchez2018chimpanzees,2017,8,16,frodo,23.0,m,focal_participant,lome,16.0,m,partner,chimpanzee,frodo_lome,male,2,7,6,test,2,r,l,lome,frodo,subject,nonsoc,soc,2.08,0.84,,2.2,yes,yes,no,no,,3.04,2.08,3.04,1.0,yes,,
sanchez2018chimpanzees,2017,8,16,lobo,13.0,m,focal_participant,,,,,chimpanzee,kofi_lobo,male,2,7,1,control,4,r,,,lobo,subject,nonsoc,,0.92,,,,yes,,,,,,0.92,,1.0,yes,,
sanchez2018chimpanzees,2017,8,16,lobo,13.0,m,focal_participant,,,,,chimpanzee,kofi_lobo,male,2,7,2,control,2,r,,,lobo,subject,nonsoc,,2.36,,,,yes,,,,,,2.36,,1.0,yes,,
sanchez2018chimpanzees,2017,8,16,lobo,13.0,m,focal_participant,,,,,chimpanzee,kofi_lobo,male,2,7,3,control,0,r,,,lobo,subject,soc,,20.16,,1.48,,yes,,,,21.64,,21.64,,0.0,yes,yes,
sanchez2018chimpanzees,2017,8,16,lobo,13.0,m,focal_participant,kofi,12.0,m,partner,chimpanzee,kofi_lobo,male,2,7,4,test,4,r,l,kofi,lobo,subject,nonsoc,soc,2.12,0.92,,1.8,yes,yes,,,,2.72,2.12,2.72,1.0,yes,,
sanchez2018chimpanzees,2017,8,16,lobo,13.0,m,focal_participant,kofi,12.0,m,partner,chimpanzee,kofi_lobo,male,2,7,5,test,0,r,l,kofi,lobo,subject,get_soc,soc,13.6,0.68,,4,yes,yes,yes,yes,,4.68,13.6,4.68,0.0,no,no,
sanchez2018chimpanzees,2017,8,16,lobo,13.0,m,focal_participant,kofi,12.0,m,partner,chimpanzee,kofi_lobo,male,2,7,6,test,2,r,l,kofi,lobo,subject,nonsoc,soc,1.44,0.88,,1.6,yes,yes,no,no,,2.48,1.44,2.48,1.0,yes,,
sanchez2018chimpanzees,2017,8,20,lome,16.0,m,focal_participant,frodo,23.0,m,partner,chimpanzee,frodo_lome,male,2,1,1,test,4,r,l,frodo,lome,partner,nonsoc,no,1.68,,,,yes,no,,,,,1.68,,,,,no
sanchez2018chimpanzees,2017,8,20,lome,16.0,m,focal_participant,frodo,23.0,m,partner,chimpanzee,frodo_lome,male,2,1,2,test,2,r,l,frodo,lome,partner,nonsoc,no,2.08,,,,yes,no,,,,,2.08,,,,,no
sanchez2018chimpanzees,2017,8,20,lome,16.0,m,focal_participant,frodo,23.0,m,partner,chimpanzee,frodo_lome,male,2,1,3,test,0,r,l,frodo,lome,partner,soc,no,4.08,,3.2,,yes,no,,,7.28,,7.28,,,,,no
sanchez2018chimpanzees,2017,8,20,,,,,frodo,23.0,m,partner,chimpanzee,frodo_lome,male,2,1,4,control,0,,l,frodo,,partner,,no,,,,,,no,,,,,,,,,,no
sanchez2018chimpanzees,2017,8,20,,,,,frodo,23.0,m,partner,chimpanzee,frodo_lome,male,2,1,5,control,2,,l,frodo,,partner,,no,,,,,,no,,,,,,,,,,no
sanchez2018chimpanzees,2017,8,20,,,,,frodo,23.0,m,partner,chimpanzee,frodo_lome,male,2,1,6,control,4,,l,frodo,,partner,,no,,,,,,no,,,,,,,,,,no
sanchez2018chimpanzees,2017,8,27,lome,16.0,m,focal_participant,,,,,chimpanzee,frodo_lome,male,2,2,1,control,4,l,,lome,,subject,nonsoc,,2.92,,,,yes,,,,,,2.92,,1.0,yes,,
sanchez2018chimpanzees,2017,8,27,lome,16.0,m,focal_participant,,,,,chimpanzee,frodo_lome,male,2,2,2,control,2,l,,lome,,subject,nonsoc,,3.48,,,,yes,,,,,,3.48,,1.0,yes,,
sanchez2018chimpanzees,2017,8,27,lome,16.0,m,focal_participant,,,,,chimpanzee,frodo_lome,male,2,2,3,control,0,l,,lome,,subject,soc,,1.12,,1,,yes,,,,2.12,,2.12,,0.0,yes,yes,
sanchez2018chimpanzees,2017,8,27,lome,16.0,m,focal_participant,frodo,23.0,m,partner,chimpanzee,frodo_lome,male,2,2,4,test,0,l,r,lome,frodo,subject,soc,get_soc,0.8,2.8,1.16,,yes,yes,no,no,1.96,,1.96,2.8,0.0,yes,yes,
sanchez2018chimpanzees,2017,8,27,lome,16.0,m,focal_participant,frodo,23.0,m,partner,chimpanzee,frodo_lome,male,2,2,5,test,2,l,r,lome,frodo,subject,nonsoc,no,2.6,,,,yes,no,no,no,,,2.6,,1.0,yes,,
sanchez2018chimpanzees,2017,8,27,lome,16.0,m,focal_participant,frodo,23.0,m,partner,chimpanzee,frodo_lome,male,2,2,6,test,4,l,r,lome,frodo,subject,nonsoc,no,2.48,,,,yes,no,,,,,2.48,,1.0,yes,,
sanchez2018chimpanzees,2017,8,20,kofi,12.0,m,focal_participant,lobo,13.0,m,partner,chimpanzee,kofi_lobo,male,2,1,1,test,0,r,l,lobo,kofi,partner,soc,get_soc,1.2,4.28,2.24,,yes,yes,,,3.44,,3.44,4.28,,,,no
sanchez2018chimpanzees,2017,8,20,kofi,12.0,m,focal_participant,lobo,13.0,m,partner,chimpanzee,kofi_lobo,male,2,1,2,test,4,r,l,lobo,kofi,partner,nonsoc,soc,0.68,0.56,,,yes,no,,,,,0.68,0.56,,,,no
sanchez2018chimpanzees,2017,8,20,kofi,12.0,m,focal_participant,lobo,13.0,m,partner,chimpanzee,kofi_lobo,male,2,1,3,test,2,r,l,lobo,kofi,partner,nonsoc,soc,0.92,8.88,,4.72,yes,yes,,,,13.6,0.92,13.6,,,,no
sanchez2018chimpanzees,2017,8,20,,,,,lobo,13.0,m,partner,chimpanzee,kofi_lobo,male,2,1,4,control,0,,l,lobo,,partner,,soc,,1.8,,1.36,,yes,,,,3.16,,3.16,,,,yes
sanchez2018chimpanzees,2017,8,20,,,,,lobo,13.0,m,partner,chimpanzee,kofi_lobo,male,2,1,5,control,4,,l,lobo,,partner,,soc,,0.8,,1.36,,yes,,,,2.16,,2.16,,,,yes
sanchez2018chimpanzees,2017,8,20,,,,,lobo,13.0,m,partner,chimpanzee,kofi_lobo,male,2,1,6,control,2,,l,lobo,,partner,,soc,,4.84,,1.24,,yes,,,,6.08,,6.08,,,,yes
sanchez2018chimpanzees,2017,8,27,,,,,lobo,13.0,m,partner,chimpanzee,kofi_lobo,male,2,2,1,control,4,,r,,lobo,partner,,soc,,1.04,,1.72,,yes,,,,2.76,,2.76,,,,yes
sanchez2018chimpanzees,2017,8,27,,,,,lobo,13.0,m,partner,chimpanzee,kofi_lobo,male,2,2,2,control,0,,r,,lobo,partner,,soc,,1.68,,10.12,,yes,,,,11.8,,11.8,,,,yes
sanchez2018chimpanzees,2017,8,27,,,,,lobo,13.0,m,partner,chimpanzee,kofi_lobo,male,2,2,3,control,2,,r,,lobo,partner,,soc,,0.12,,5.28,,yes,,,,5.4,,5.4,,,,yes
sanchez2018chimpanzees,2017,8,27,kofi,12.0,m,focal_participant,lobo,13.0,m,partner,chimpanzee,kofi_lobo,male,2,2,4,test,0,l,r,kofi,lobo,partner,soc,soc,8.84,14.52,,,no,no,,,,,8.84,14.52,,,,no
sanchez2018chimpanzees,2017,8,27,kofi,12.0,m,focal_participant,lobo,13.0,m,partner,chimpanzee,kofi_lobo,male,2,2,5,test,4,l,r,kofi,lobo,partner,nonsoc,soc,0.72,4.64,,3.88,yes,yes,,,,8.52,0.72,8.52,,,,yes
sanchez2018chimpanzees,2017,8,27,kofi,12.0,m,focal_participant,lobo,13.0,m,partner,chimpanzee,kofi_lobo,male,2,2,6,test,2,l,r,kofi,lobo,partner,nonsoc,soc,1.04,2.4,,11.44,yes,yes,,,,13.84,1.04,13.84,,,,no
sanchez2018chimpanzees,2017,8,19,lobo,13.0,m,focal_participant,kofi,12.0,m,partner,chimpanzee,kofi_lobo,male,2,8,1,test,4,l,r,lobo,kofi,partner,nonsoc,soc,0.88,14.8,,3.64,yes,yes,,,,18.44,0.88,18.44,,,,no
sanchez2018chimpanzees,2017,8,19,lobo,13.0,m,focal_participant,kofi,12.0,m,partner,chimpanzee,kofi_lobo,male,2,8,2,test,0,l,r,lobo,kofi,partner,get_soc,soc,1.52,1.92,,3.08,yes,yes,,,,5,1.52,5,,,,yes
sanchez2018chimpanzees,2017,8,19,lobo,13.0,m,focal_participant,kofi,12.0,m,partner,chimpanzee,kofi_lobo,male,2,8,3,test,2,l,r,lobo,kofi,partner,get_soc,soc,6.8,1,,15.96,yes,yes,,,,16.96,6.8,16.96,,,,yes
sanchez2018chimpanzees,2017,8,19,,,,,kofi,12.0,m,partner,chimpanzee,kofi_lobo,male,2,8,4,control,4,,r,,kofi,partner,,soc,,2.36,,12.12,,yes,,,,14.48,,14.48,,,,yes
sanchez2018chimpanzees,2017,8,19,,,,,kofi,12.0,m,partner,chimpanzee,kofi_lobo,male,2,8,5,control,0,,r,,kofi,partner,,soc,,2.12,,9.92,,yes,,,,12.04,,12.04,,,,yes
sanchez2018chimpanzees,2017,8,19,,,,,kofi,12.0,m,partner,chimpanzee,kofi_lobo,male,2,8,6,control,2,,r,,kofi,partner,,soc,,2.36,,1.8,,yes,,,,4.16,,4.16,,,,yes
sanchez2018chimpanzees,2017,8,19,frodo,23.0,m,focal_participant,lome,16.0,m,partner,chimpanzee,frodo_lome,male,2,8,1,test,4,l,r,frodo,lome,partner,get_soc,soc,0.8,0.56,,4.04,yes,yes,,,,4.6,0.8,4.6,,,,yes
sanchez2018chimpanzees,2017,8,19,frodo,23.0,m,focal_participant,lome,16.0,m,partner,chimpanzee,frodo_lome,male,2,8,2,test,2,l,r,frodo,lome,partner,nonsoc,soc,2.32,2.96,,8,yes,yes,,,,10.96,2.32,10.96,,,,yes
sanchez2018chimpanzees,2017,8,19,frodo,23.0,m,focal_participant,lome,16.0,m,partner,chimpanzee,frodo_lome,male,2,8,3,test,0,l,r,frodo,lome,partner,get_soc,soc,0.76,4.16,,2,yes,yes,,,,6.16,0.76,6.16,,,,yes
sanchez2018chimpanzees,2017,8,19,,,,,lome,16.0,m,partner,chimpanzee,frodo_lome,male,2,8,4,control,0,,r,,lome,partner,,soc,,1.24,,2.08,,yes,,,,3.32,,3.32,,,,yes
sanchez2018chimpanzees,2017,8,19,,,,,lome,16.0,m,partner,chimpanzee,frodo_lome,male,2,8,5,control,4,,r,,lome,partner,,soc,,2.16,,2.08,,yes,,,,4.24,,4.24,,,,yes
sanchez2018chimpanzees,2017,8,19,,,,,lome,16.0,m,partner,chimpanzee,frodo_lome,male,2,8,6,control,2,,r,,lome,partner,,soc,,1.52,,1.92,,yes,,,,3.44,,3.44,,,,yes
sanchez2018chimpanzees,2017,8,20,tai,15.0,f,focal_participant,bangolo,8.0,m,partner,chimpanzee,bangolo_tai,mix,2,7,1,test,0,r,l,bangolo,tai,partner,get_soc,soc,1.72,0.76,,1.24,yes,yes,,,,2,1.72,2,,,,yes
sanchez2018chimpanzees,2017,8,20,tai,15.0,f,focal_participant,bangolo,8.0,m,partner,chimpanzee,bangolo_tai,mix,2,7,2,test,4,r,l,bangolo,tai,partner,nonsoc,soc,1.52,1.76,,1.12,yes,yes,,,,2.88,1.52,2.88,,,,yes
sanchez2018chimpanzees,2017,8,20,tai,15.0,f,focal_participant,bangolo,8.0,m,partner,chimpanzee,bangolo_tai,mix,2,7,3,test,2,r,l,bangolo,tai,partner,nonsoc,nonsoc,3.8,0.96,,,yes,no,,,,,3.8,0.96,,,,
sanchez2018chimpanzees,2017,8,20,,,,,bangolo,8.0,m,partner,chimpanzee,bangolo_tai,mix,2,7,4,control,2,,l,bangolo,,partner,,soc,,0.84,,0.92,,yes,,,,1.76,,1.76,,,,yes
sanchez2018chimpanzees,2017,8,20,,,,,bangolo,8.0,m,partner,chimpanzee,bangolo_tai,mix,2,7,5,control,0,,l,bangolo,,partner,,soc,,0.68,,1.52,,yes,,,,2.2,,2.2,,,,yes
sanchez2018chimpanzees,2017,8,20,,,,,bangolo,8.0,m,partner,chimpanzee,bangolo_tai,mix,2,7,6,control,4,,l,bangolo,,partner,,soc,,1.44,,1.16,,yes,,,,2.6,,2.6,,,,yes
sanchez2018chimpanzees,2017,8,27,tai,15.0,f,focal_participant,,,,,chimpanzee,bangolo_tai,mix,2,8,1,control,2,l,,tai,,subject,nonsoc,,2.6,,,,yes,,,,,,2.6,,1.0,yes,,
sanchez2018chimpanzees,2017,8,27,tai,15.0,f,focal_participant,,,,,chimpanzee,bangolo_tai,mix,2,8,2,control,4,l,,tai,,subject,nonsoc,,0.6,,,,yes,,,,,,0.6,,1.0,yes,,
sanchez2018chimpanzees,2017,8,27,tai,15.0,f,focal_participant,,,,,chimpanzee,bangolo_tai,mix,2,8,3,control,0,l,,tai,,subject,soc,,1,,1.16,,yes,,,,2.16,,2.16,,0.0,yes,yes,
sanchez2018chimpanzees,2017,8,27,tai,15.0,f,focal_participant,bangolo,8.0,m,partner,chimpanzee,bangolo_tai,mix,2,8,4,test,2,l,r,tai,bangolo,subject,nonsoc,soc,1,1.6,,5.24,yes,yes,no,no,,6.84,1,6.84,1.0,yes,,
sanchez2018chimpanzees,2017,8,27,tai,15.0,f,focal_participant,bangolo,8.0,m,partner,chimpanzee,bangolo_tai,mix,2,8,5,test,0,l,r,tai,bangolo,subject,soc,get_soc,1.24,0.76,2.76,,yes,yes,no,no,4,,4,0.76,0.0,yes,yes,
sanchez2018chimpanzees,2017,8,27,tai,15.0,f,focal_participant,bangolo,8.0,m,partner,chimpanzee,bangolo_tai,mix,2,8,6,test,4,l,r,tai,bangolo,subject,nonsoc,soc,1.92,1.52,,1.88,yes,yes,,,,3.4,1.92,3.4,1.0,yes,,
sanchez2018chimpanzees,2017,9,15,,,,,frodo,23.0,m,partner,chimpanzee,frodo_lome,male,2,3,1,control,4,,l,frodo,,partner,,no,,,,,,no,,,,,,,,,,no
sanchez2018chimpanzees,2017,9,15,,,,,frodo,23.0,m,partner,chimpanzee,frodo_lome,male,2,3,2,control,2,,l,frodo,,partner,,no,,,,,,no,,,,,,,,,,no
sanchez2018chimpanzees,2017,9,15,,,,,frodo,23.0,m,partner,chimpanzee,frodo_lome,male,2,3,3,control,0,,l,frodo,,partner,,no,,,,,,no,,,,,,,,,,no
sanchez2018chimpanzees,2017,9,15,lome,16.0,m,focal_participant,frodo,23.0,m,partner,chimpanzee,frodo_lome,male,2,3,4,test,2,r,l,frodo,lome,partner,nonsoc,no,1.16,,,,yes,no,,,,,1.16,,,,,no
sanchez2018chimpanzees,2017,9,15,lome,16.0,m,focal_participant,frodo,23.0,m,partner,chimpanzee,frodo_lome,male,2,3,5,test,4,r,l,frodo,lome,partner,nonsoc,no,1.6,,,,yes,no,,,,,1.6,,,,,no
sanchez2018chimpanzees,2017,9,15,lome,16.0,m,focal_participant,frodo,23.0,m,partner,chimpanzee,frodo_lome,male,2,3,6,test,0,r,l,frodo,lome,partner,soc,get_soc,1.44,18.08,1.36,,yes,yes,,,2.8,,2.8,18.08,,,,no
sanchez2018chimpanzees,2017,9,24,lome,16.0,m,focal_participant,frodo,23.0,m,partner,chimpanzee,frodo_lome,male,2,4,1,test,2,l,r,lome,frodo,subject,nonsoc,no,3.28,,,,yes,no,no,no,,,3.28,,1.0,yes,,
sanchez2018chimpanzees,2017,9,24,lome,16.0,m,focal_participant,frodo,23.0,m,partner,chimpanzee,frodo_lome,male,2,4,2,test,4,l,r,lome,frodo,subject,nonsoc,no,2.32,,,,yes,no,,,,,2.32,,1.0,yes,,
sanchez2018chimpanzees,2017,9,24,lome,16.0,m,focal_participant,frodo,23.0,m,partner,chimpanzee,frodo_lome,male,2,4,3,test,0,l,r,lome,frodo,subject,soc,get_soc,1.36,2.48,1.08,,yes,yes,no,no,2.44,,2.44,2.48,0.0,yes,yes,
sanchez2018chimpanzees,2017,9,24,lome,16.0,m,focal_participant,,,,,chimpanzee,frodo_lome,male,2,4,4,control,4,l,,lome,,subject,nonsoc,,1.84,,,,yes,,,,,,1.84,,1.0,yes,,
sanchez2018chimpanzees,2017,9,24,lome,16.0,m,focal_participant,,,,,chimpanzee,frodo_lome,male,2,4,5,control,2,l,,lome,,subject,nonsoc,,2.6,,,,yes,,,,,,2.6,,1.0,yes,,
sanchez2018chimpanzees,2017,9,24,lome,16.0,m,focal_participant,,,,,chimpanzee,frodo_lome,male,2,4,6,control,0,l,,lome,,subject,soc,,2.92,,1.2,,yes,,,,4.12,,4.12,,0.0,yes,yes,
sanchez2018chimpanzees,2017,9,24,,,,,lobo,13.0,m,partner,chimpanzee,kofi_lobo,male,2,3,1,control,4,,l,lobo,,partner,,soc,,0.56,,1.96,,yes,,,,2.52,,2.52,,,,yes
sanchez2018chimpanzees,2017,9,24,,,,,lobo,13.0,m,partner,chimpanzee,kofi_lobo,male,2,3,2,control,0,,l,lobo,,partner,,soc,,1.88,,4.96,,yes,,,,6.84,,6.84,,,,yes
sanchez2018chimpanzees,2017,9,24,,,,,lobo,13.0,m,partner,chimpanzee,kofi_lobo,male,2,3,3,control,2,,l,lobo,,partner,,soc,,7.24,,1.44,,yes,,,,8.68,,8.68,,,,yes
sanchez2018chimpanzees,2017,9,24,kofi,12.0,m,focal_participant,lobo,13.0,m,partner,chimpanzee,kofi_lobo,male,2,3,4,test,0,r,l,lobo,kofi,partner,soc,get_soc,5,3.76,3.56,,yes,yes,,,8.56,,8.56,3.76,,,,no
sanchez2018chimpanzees,2017,9,24,kofi,12.0,m,focal_participant,lobo,13.0,m,partner,chimpanzee,kofi_lobo,male,2,3,5,test,2,r,l,lobo,kofi,partner,nonsoc,soc,1.6,8,,8.92,yes,yes,,,,16.92,1.6,16.92,,,,no
sanchez2018chimpanzees,2017,9,24,kofi,12.0,m,focal_participant,lobo,13.0,m,partner,chimpanzee,kofi_lobo,male,2,3,6,test,4,r,l,lobo,kofi,partner,nonsoc,soc,0.8,12.68,,5.12,yes,yes,,,,17.8,0.8,17.8,,,,no
sanchez2018chimpanzees,2017,9,26,kofi,12.0,m,focal_participant,lobo,13.0,m,partner,chimpanzee,kofi_lobo,male,2,4,1,test,2,l,r,kofi,lobo,subject,nonsoc,soc,0.92,5.16,,3.76,yes,yes,no,no,,8.92,0.92,8.92,1.0,yes,,
sanchez2018chimpanzees,2017,9,26,kofi,12.0,m,focal_participant,lobo,13.0,m,partner,chimpanzee,kofi_lobo,male,2,4,2,test,0,l,r,kofi,lobo,subject,soc,get_soc,0.6,0.84,3.4,,yes,yes,no,no,4,,4,0.84,0.0,yes,yes,
sanchez2018chimpanzees,2017,9,26,kofi,12.0,m,focal_participant,lobo,13.0,m,partner,chimpanzee,kofi_lobo,male,2,4,3,test,4,l,r,kofi,lobo,subject,nonsoc,soc,1.16,1.68,,6.28,yes,yes,,,,7.96,1.16,7.96,1.0,yes,,
sanchez2018chimpanzees,2017,9,26,kofi,12.0,m,focal_participant,,,,,chimpanzee,kofi_lobo,male,2,4,4,control,2,l,,kofi,,subject,nonsoc,,1.28,,,,yes,,,,,,1.28,,1.0,yes,,
sanchez2018chimpanzees,2017,9,26,kofi,12.0,m,focal_participant,,,,,chimpanzee,kofi_lobo,male,2,4,5,control,0,l,,kofi,,subject,soc,,1.72,,2.2,,yes,,,,3.92,,3.92,,0.0,yes,yes,
sanchez2018chimpanzees,2017,9,26,kofi,12.0,m,focal_participant,,,,,chimpanzee,kofi_lobo,male,2,4,6,control,4,l,,kofi,,subject,nonsoc,,1.28,,,,yes,,,,,,1.28,,1.0,yes,,
sanchez2018chimpanzees,2017,9,27,kofi,12.0,m,focal_participant,lobo,13.0,m,partner,chimpanzee,kofi_lobo,male,2,5,1,test,2,l,r,kofi,lobo,partner,nonsoc,soc,2.56,6.2,,9,yes,yes,,,,15.2,2.56,15.2,,,,no
sanchez2018chimpanzees,2017,9,27,kofi,12.0,m,focal_participant,lobo,13.0,m,partner,chimpanzee,kofi_lobo,male,2,5,2,test,0,l,r,kofi,lobo,partner,get_soc,soc,0.12,0.92,,4.88,yes,yes,,,,5.8,0.12,5.8,,,,yes
sanchez2018chimpanzees,2017,9,27,kofi,12.0,m,focal_participant,lobo,13.0,m,partner,chimpanzee,kofi_lobo,male,2,5,3,test,4,l,r,kofi,lobo,partner,nonsoc,soc,2.16,4.72,,2,yes,yes,,,,6.72,2.16,6.72,,,,yes
sanchez2018chimpanzees,2017,9,27,,,,,lobo,13.0,m,partner,chimpanzee,kofi_lobo,male,2,5,4,control,2,,r,,lobo,partner,,soc,,1.32,,5.12,,yes,,,,6.44,,6.44,,,,yes
sanchez2018chimpanzees,2017,9,27,,,,,lobo,13.0,m,partner,chimpanzee,kofi_lobo,male,2,5,5,control,4,,r,,lobo,partner,,soc,,2.44,,2.6,,yes,,,,5.04,,5.04,,,,yes
sanchez2018chimpanzees,2017,9,27,,,,,lobo,13.0,m,partner,chimpanzee,kofi_lobo,male,2,5,6,control,0,,r,,lobo,partner,,soc,,1.28,,1.8,,yes,,,,3.08,,3.08,,,,yes
sanchez2018chimpanzees,2017,9,28,kofi,12.0,m,focal_participant,,,,,chimpanzee,kofi_lobo,male,2,6,1,control,4,r,,,kofi,subject,nonsoc,,1.44,,,,yes,,,,,,1.44,,1.0,yes,,
sanchez2018chimpanzees,2017,9,28,kofi,12.0,m,focal_participant,,,,,chimpanzee,kofi_lobo,male,2,6,2,control,2,r,,,kofi,subject,nonsoc,,1.68,,,,yes,,,,,,1.68,,1.0,yes,,
sanchez2018chimpanzees,2017,9,28,kofi,12.0,m,focal_participant,,,,,chimpanzee,kofi_lobo,male,2,6,3,control,0,r,,,kofi,subject,soc,,0.44,,1.76,,yes,,,,2.2,,2.2,,0.0,yes,yes,
